subject trial unshuffledTrial identity goStop goNum threat img hand SSD DELTA gotResponse correctResp orientation keyPress rt day time
323 1 129 self go 1 yes img1 1 0.000000 0.000000 1 1 L left 524 04-May-2016 10:53:39
323 2 158 other go 1 no pic14 1 0.000000 0.000000 1 1 R left 656 04-May-2016 10:53:42
323 3 27 other go 1 no pic11 1 0.000000 0.000000 1 1 L right 814 04-May-2016 10:53:45
323 4 98 self go 1 yes img2 1 0.000000 0.000000 1 1 L left 568 04-May-2016 10:53:47
323 5 106 self go 1 no img10 1 0.000000 0.000000 1 1 L left 458 04-May-2016 10:53:50
323 6 235 self go 1 no img11 1 0.000000 0.000000 1 1 L left 558 04-May-2016 10:53:53
323 7 265 self stop 0 no img9 1 0.250000 0.050000 0 1 L NONE 0 04-May-2016 10:53:57
323 8 20 other go 1 yes pic4 1 0.250000 0.050000 1 1 L right 526 04-May-2016 10:53:59
323 9 126 other go 1 no pic14 1 0.250000 0.050000 1 1 R left 707 04-May-2016 10:54:02
323 10 231 self go 1 yes img7 1 0.250000 0.050000 1 1 R right 576 04-May-2016 10:54:06
323 11 279 other stop 0 yes pic7 1 0.300000 0.100000 0 1 R NONE 0 04-May-2016 10:54:10
323 12 214 other go 1 yes pic6 1 0.300000 0.100000 1 1 R left 719 04-May-2016 10:54:12
323 13 12 self go 1 no img12 1 0.300000 0.100000 1 1 L left 594 04-May-2016 10:54:15
323 14 315 other stop 0 no pic11 1 0.350000 0.150000 1 0 L right 428 04-May-2016 10:54:19
323 15 285 other stop 0 no pic13 1 0.300000 0.100000 0 1 R NONE 0 04-May-2016 10:54:22
323 16 60 other go 1 no pic12 1 0.300000 0.100000 1 1 L right 595 04-May-2016 10:54:25
323 17 147 other go 1 yes pic3 1 0.300000 0.100000 1 1 L right 554 04-May-2016 10:54:28
323 18 29 other go 1 no pic13 1 0.300000 0.100000 1 1 R left 613 04-May-2016 10:54:31
323 19 175 self go 1 no img15 1 0.300000 0.100000 1 1 R right 636 04-May-2016 10:54:34
323 20 114 other go 1 yes pic2 1 0.300000 0.100000 1 1 L right 574 04-May-2016 10:54:37
323 21 196 self go 1 yes img4 1 0.300000 0.100000 1 1 L left 579 04-May-2016 10:54:40
323 22 221 other go 1 no pic13 1 0.300000 0.100000 1 1 R left 616 04-May-2016 10:54:43
323 23 194 self go 1 yes img2 1 0.300000 0.100000 1 1 L left 732 04-May-2016 10:54:46
323 24 242 other go 1 yes pic2 1 0.300000 0.100000 1 1 L right 769 04-May-2016 10:54:49
323 25 78 self go 1 no img14 1 0.300000 0.100000 1 1 R right 683 04-May-2016 10:54:52
323 26 88 other go 1 yes pic8 1 0.300000 0.100000 1 1 R left 696 04-May-2016 10:54:56
323 27 99 self go 1 yes img3 1 0.300000 0.100000 1 1 L left 618 04-May-2016 10:54:58
323 28 8 self go 1 yes img8 1 0.300000 0.100000 1 1 R right 824 04-May-2016 10:55:01
323 29 185 other go 1 no pic9 1 0.300000 0.100000 1 1 L right 777 04-May-2016 10:55:05
323 30 294 self stop 0 yes img6 1 0.350000 0.150000 0 1 R NONE 0 04-May-2016 10:55:08
323 31 57 other go 1 no pic9 1 0.350000 0.150000 1 1 L right 687 04-May-2016 10:55:12
323 32 306 other stop 0 yes pic2 1 0.400000 0.200000 0 1 L NONE 0 04-May-2016 10:55:15
323 33 173 self go 1 no img13 1 0.400000 0.200000 1 1 R right 728 04-May-2016 10:55:18
323 34 262 self stop 0 yes img6 1 0.450000 0.250000 0 1 R NONE 0 04-May-2016 10:55:22
323 35 250 other go 1 no pic10 1 0.450000 0.250000 1 1 L right 835 04-May-2016 10:55:26
323 36 15 self go 1 no img15 1 0.450000 0.250000 1 1 R right 649 04-May-2016 10:55:29
323 37 79 self go 1 no img15 1 0.450000 0.250000 1 1 R right 814 04-May-2016 10:55:32
323 38 203 self go 1 no img11 1 0.450000 0.250000 1 1 L left 794 04-May-2016 10:55:35
323 39 123 other go 1 no pic11 1 0.450000 0.250000 1 1 L right 744 04-May-2016 10:55:38
323 40 105 self go 1 no img9 1 0.450000 0.250000 1 1 L left 671 04-May-2016 10:55:42
323 41 13 self go 1 no img13 1 0.450000 0.250000 1 1 R right 766 04-May-2016 10:55:44
323 42 94 other go 1 no pic14 1 0.450000 0.250000 1 1 R left 744 04-May-2016 10:55:47
323 43 160 other go 1 no pic16 1 0.450000 0.250000 1 1 R left 819 04-May-2016 10:55:51
323 44 38 self go 1 yes img6 1 0.450000 0.250000 1 1 R right 828 04-May-2016 10:55:54
323 45 154 other go 1 no pic10 1 0.450000 0.250000 1 1 L right 680 04-May-2016 10:55:58
323 46 167 self go 1 yes img7 1 0.450000 0.250000 1 1 R right 835 04-May-2016 10:56:01
323 47 36 self go 1 yes img4 1 0.450000 0.250000 1 1 L left 933 04-May-2016 10:56:04
323 48 193 self go 1 yes img1 1 0.450000 0.250000 1 1 L left 872 04-May-2016 10:56:07
323 49 43 self go 1 no img11 1 0.450000 0.250000 1 1 L left 946 04-May-2016 10:56:10
323 50 134 self go 1 yes img6 1 0.450000 0.250000 1 1 R right 890 04-May-2016 10:56:14
323 51 132 self go 1 yes img4 1 0.450000 0.250000 1 1 L left 881 04-May-2016 10:56:17
323 52 314 other stop 0 no pic10 1 0.500000 0.300000 0 1 L NONE 0 04-May-2016 10:56:21
323 53 286 other stop 0 no pic14 1 0.550000 0.350000 0 1 R NONE 0 04-May-2016 10:56:24
323 54 59 other go 1 no pic11 1 0.550000 0.350000 1 1 L right 800 04-May-2016 10:56:28
323 55 252 other go 1 no pic12 1 0.550000 0.350000 1 1 L right 753 04-May-2016 10:56:31
323 56 232 self go 1 yes img8 1 0.550000 0.350000 1 1 R right 764 04-May-2016 10:56:35
323 57 189 other go 1 no pic13 1 0.550000 0.350000 1 1 R left 838 04-May-2016 10:56:38
323 58 138 self go 1 no img10 1 0.550000 0.350000 1 1 L left 794 04-May-2016 10:56:41
323 59 84 other go 1 yes pic4 1 0.550000 0.350000 1 1 L right 822 04-May-2016 10:56:45
323 60 32 other go 1 no pic16 1 0.550000 0.350000 1 1 R left 730 04-May-2016 10:56:48
323 61 171 self go 1 no img11 1 0.550000 0.350000 1 1 L left 648 04-May-2016 10:56:51
323 62 268 self stop 0 no img12 1 0.600000 0.400000 1 0 L left 669 04-May-2016 10:56:54
323 63 21 other go 1 yes pic5 1 0.600000 0.400000 1 1 R left 707 04-May-2016 10:56:57
323 64 49 other go 1 yes pic1 1 0.600000 0.400000 1 1 L right 708 04-May-2016 10:57:00
323 65 209 other go 1 yes pic1 1 0.600000 0.400000 1 1 L right 688 04-May-2016 10:57:04
323 66 313 other stop 0 no pic9 1 0.550000 0.350000 0 1 L NONE 0 04-May-2016 10:57:07
323 67 1 self go 1 yes img1 1 0.550000 0.350000 1 1 L left 704 04-May-2016 10:57:11
323 68 91 other go 1 no pic11 1 0.550000 0.350000 1 1 L right 794 04-May-2016 10:57:14
323 69 182 other go 1 yes pic6 1 0.550000 0.350000 1 1 R left 861 04-May-2016 10:57:18
323 70 224 other go 1 no pic16 1 0.550000 0.350000 1 1 R left 912 04-May-2016 10:57:21
323 71 267 self stop 0 no img11 1 0.600000 0.400000 0 1 L NONE 0 04-May-2016 10:57:25
323 72 40 self go 1 yes img8 1 0.600000 0.400000 1 1 R right 766 04-May-2016 10:57:28
323 73 22 other go 1 yes pic6 1 0.600000 0.400000 1 1 R left 970 04-May-2016 10:57:31
323 74 14 self go 1 no img14 1 0.600000 0.400000 1 1 R right 845 04-May-2016 10:57:34
323 75 222 other go 1 no pic14 1 0.600000 0.400000 1 1 R left 802 04-May-2016 10:57:37
323 76 276 other stop 0 yes pic4 1 0.650000 0.450000 0 1 L NONE 0 04-May-2016 10:57:40
323 77 26 other go 1 no pic10 1 0.650000 0.450000 1 1 L right 832 04-May-2016 10:57:43
323 78 270 self stop 0 no img14 1 0.700000 0.500000 1 0 R right 789 04-May-2016 10:57:46
323 79 192 other go 1 no pic16 1 0.700000 0.500000 0 0 R NONE 0 04-May-2016 10:57:50
323 80 18 other go 1 yes pic2 1 0.700000 0.500000 1 1 L right 665 04-May-2016 10:57:52
323 81 303 self stop 0 no img15 1 0.650000 0.450000 1 0 R right 713 04-May-2016 10:57:55
323 82 92 other go 1 no pic12 1 0.650000 0.450000 1 1 L right 820 04-May-2016 10:57:58
323 83 220 other go 1 no pic12 1 0.650000 0.450000 0 0 L NONE 0 04-May-2016 10:58:02
323 84 124 other go 1 no pic12 1 0.650000 0.450000 1 1 L right 645 04-May-2016 10:58:04
323 85 87 other go 1 yes pic7 1 0.650000 0.450000 1 1 R left 540 04-May-2016 10:58:07
323 86 89 other go 1 no pic9 1 0.650000 0.450000 1 1 L right 492 04-May-2016 10:58:10
323 87 70 self go 1 yes img6 1 0.650000 0.450000 1 1 R right 602 04-May-2016 10:58:13
323 88 117 other go 1 yes pic5 1 0.650000 0.450000 1 1 R left 915 04-May-2016 10:58:16
323 89 269 self stop 0 no img13 1 0.600000 0.400000 1 0 R right 683 04-May-2016 10:58:19
323 90 197 self go 1 yes img5 1 0.600000 0.400000 1 1 R right 659 04-May-2016 10:58:23
323 91 28 other go 1 no pic12 1 0.600000 0.400000 1 1 L right 737 04-May-2016 10:58:26
323 92 272 self stop 0 no img16 1 0.550000 0.350000 0 1 R NONE 0 04-May-2016 10:58:30
323 93 320 other stop 0 no pic16 1 0.600000 0.400000 0 1 R NONE 0 04-May-2016 10:58:33
323 94 257 self stop 0 yes img1 1 0.650000 0.450000 1 0 L left 722 04-May-2016 10:58:36
323 95 291 self stop 0 yes img3 1 0.600000 0.400000 0 1 L NONE 0 04-May-2016 10:58:39
323 96 230 self go 1 yes img6 1 0.600000 0.400000 1 1 R right 596 04-May-2016 10:58:42
323 97 282 other stop 0 no pic10 1 0.650000 0.450000 0 1 L NONE 0 04-May-2016 10:58:45
323 98 183 other go 1 yes pic7 1 0.650000 0.450000 1 1 R left 735 04-May-2016 10:58:49
323 99 101 self go 1 yes img5 1 0.650000 0.450000 1 1 R right 884 04-May-2016 10:58:52
323 100 300 self stop 0 no img12 1 0.700000 0.500000 1 0 L left 536 04-May-2016 10:58:55
323 101 6 self go 1 yes img6 1 0.700000 0.500000 1 1 R right 698 04-May-2016 10:58:59
323 102 198 self go 1 yes img6 1 0.700000 0.500000 1 1 R right 673 04-May-2016 10:59:02
323 103 140 self go 1 no img12 1 0.700000 0.500000 1 1 L left 847 04-May-2016 10:59:06
323 104 47 self go 1 no img15 1 0.700000 0.500000 1 1 R right 814 04-May-2016 10:59:09
323 105 116 other go 1 yes pic4 1 0.700000 0.500000 1 1 L right 827 04-May-2016 10:59:12
323 106 234 self go 1 no img10 1 0.700000 0.500000 1 1 L left 768 04-May-2016 10:59:15
323 107 312 other stop 0 yes pic8 1 0.650000 0.450000 1 0 R left 755 04-May-2016 10:59:18
323 108 311 other stop 0 yes pic7 1 0.600000 0.400000 1 0 R left 783 04-May-2016 10:59:21
323 109 35 self go 1 yes img3 1 0.600000 0.400000 1 1 L left 912 04-May-2016 10:59:25
323 110 10 self go 1 no img10 1 0.600000 0.400000 1 1 L left 831 04-May-2016 10:59:29
323 111 56 other go 1 yes pic8 1 0.600000 0.400000 1 1 R left 853 04-May-2016 10:59:32
323 112 151 other go 1 yes pic7 1 0.600000 0.400000 1 1 R left 753 04-May-2016 10:59:35
323 113 75 self go 1 no img11 1 0.600000 0.400000 1 1 L left 788 04-May-2016 10:59:39
323 114 102 self go 1 yes img6 1 0.600000 0.400000 1 1 R right 666 04-May-2016 10:59:42
323 115 46 self go 1 no img14 1 0.600000 0.400000 1 1 R right 666 04-May-2016 10:59:45
323 116 259 self stop 0 yes img3 1 0.550000 0.350000 0 1 L NONE 0 04-May-2016 10:59:49
323 117 93 other go 1 no pic13 1 0.550000 0.350000 1 1 R left 941 04-May-2016 10:59:52
323 118 72 self go 1 yes img8 1 0.550000 0.350000 1 1 R right 739 04-May-2016 10:59:56
323 119 155 other go 1 no pic11 1 0.550000 0.350000 1 1 L right 843 04-May-2016 10:59:59
323 120 52 other go 1 yes pic4 1 0.550000 0.350000 1 1 L right 996 04-May-2016 11:00:03
323 121 51 other go 1 yes pic3 1 0.550000 0.350000 1 1 L right 998 04-May-2016 11:00:06
323 122 143 self go 1 no img15 1 0.550000 0.350000 1 1 R right 835 04-May-2016 11:00:09
323 123 37 self go 1 yes img5 1 0.550000 0.350000 1 1 R right 681 04-May-2016 11:00:12
323 124 229 self go 1 yes img5 1 0.550000 0.350000 1 1 R right 727 04-May-2016 11:00:16
323 125 215 other go 1 yes pic7 1 0.550000 0.350000 1 1 R left 750 04-May-2016 11:00:18
323 126 83 other go 1 yes pic3 1 0.550000 0.350000 1 1 L right 739 04-May-2016 11:00:22
323 127 280 other stop 0 yes pic8 1 0.600000 0.400000 1 0 R left 589 04-May-2016 11:00:25
323 128 97 self go 1 yes img1 1 0.600000 0.400000 1 1 L left 797 04-May-2016 11:00:28
323 129 254 other go 1 no pic14 1 0.600000 0.400000 1 1 R left 687 04-May-2016 11:00:32
323 130 62 other go 1 no pic14 1 0.600000 0.400000 1 1 R left 919 04-May-2016 11:00:35
323 131 130 self go 1 yes img2 1 0.600000 0.400000 0 0 L NONE 0 04-May-2016 11:00:38
323 132 249 other go 1 no pic9 1 0.600000 0.400000 1 1 L right 630 04-May-2016 11:00:40
323 133 172 self go 1 no img12 1 0.600000 0.400000 1 1 L left 589 04-May-2016 11:00:43
323 134 260 self stop 0 yes img4 1 0.550000 0.350000 1 0 L left 603 04-May-2016 11:00:46
323 135 135 self go 1 yes img7 1 0.550000 0.350000 1 1 R right 759 04-May-2016 11:00:49
323 136 205 self go 1 no img13 1 0.550000 0.350000 1 1 R right 769 04-May-2016 11:00:53
323 137 65 self go 1 yes img1 1 0.550000 0.350000 1 1 L left 764 04-May-2016 11:00:56
323 138 304 self stop 0 no img16 1 0.500000 0.300000 0 1 R NONE 0 04-May-2016 11:01:00
323 139 120 other go 1 yes pic8 1 0.500000 0.300000 1 1 R left 794 04-May-2016 11:01:03
323 140 166 self go 1 yes img6 1 0.500000 0.300000 1 1 R right 646 04-May-2016 11:01:07
323 141 241 other go 1 yes pic1 1 0.500000 0.300000 1 1 L right 860 04-May-2016 11:01:10
323 142 288 other stop 0 no pic16 1 0.550000 0.350000 1 0 R left 634 04-May-2016 11:01:13
323 143 307 other stop 0 yes pic3 1 0.500000 0.300000 0 1 L NONE 0 04-May-2016 11:01:16
323 144 44 self go 1 no img12 1 0.500000 0.300000 1 1 L left 735 04-May-2016 11:01:19
323 145 9 self go 1 no img9 1 0.500000 0.300000 1 1 L left 846 04-May-2016 11:01:22
323 146 19 other go 1 yes pic3 1 0.500000 0.300000 1 1 L right 790 04-May-2016 11:01:25
323 147 299 self stop 0 no img11 1 0.550000 0.350000 0 1 L NONE 0 04-May-2016 11:01:29
323 148 3 self go 1 yes img3 1 0.550000 0.350000 1 1 L left 765 04-May-2016 11:01:31
323 149 63 other go 1 no pic15 1 0.550000 0.350000 1 1 R left 839 04-May-2016 11:01:35
323 150 119 other go 1 yes pic7 1 0.550000 0.350000 1 1 R left 714 04-May-2016 11:01:39
323 151 301 self stop 0 no img13 1 0.600000 0.400000 0 1 R NONE 0 04-May-2016 11:01:42
323 152 115 other go 1 yes pic3 1 0.600000 0.400000 1 1 L right 856 04-May-2016 11:01:45
323 153 181 other go 1 yes pic5 1 0.600000 0.400000 1 1 R left 871 04-May-2016 11:01:48
323 154 309 other stop 0 yes pic5 1 0.650000 0.450000 0 1 R NONE 0 04-May-2016 11:01:52
323 155 217 other go 1 no pic9 1 0.650000 0.450000 1 1 L right 679 04-May-2016 11:01:55
323 156 292 self stop 0 yes img4 1 0.700000 0.500000 1 0 L left 849 04-May-2016 11:01:58
323 157 293 self stop 0 yes img5 1 0.650000 0.450000 0 1 R NONE 0 04-May-2016 11:02:01
323 158 24 other go 1 yes pic8 1 0.650000 0.450000 1 1 R left 851 04-May-2016 11:02:05
323 159 271 self stop 0 no img15 1 0.700000 0.500000 1 0 R right 758 04-May-2016 11:02:08
323 160 73 self go 1 no img9 1 0.700000 0.500000 1 1 L left 858 04-May-2016 11:02:11
323 161 216 other go 1 yes pic8 1 0.700000 0.500000 1 1 R left 929 04-May-2016 11:02:14
323 162 207 self go 1 no img15 1 0.700000 0.500000 1 1 R right 897 04-May-2016 11:02:17
323 163 247 other go 1 yes pic7 1 0.700000 0.500000 1 1 R left 830 04-May-2016 11:02:21
323 164 284 other stop 0 no pic12 1 0.650000 0.450000 0 1 L NONE 0 04-May-2016 11:02:24
323 165 45 self go 1 no img13 1 0.650000 0.450000 0 0 R NONE 0 04-May-2016 11:02:28
323 166 153 other go 1 no pic9 1 0.650000 0.450000 1 1 L right 841 04-May-2016 11:02:30
323 167 157 other go 1 no pic13 1 0.650000 0.450000 1 1 R left 851 04-May-2016 11:02:33
323 168 103 self go 1 yes img7 1 0.650000 0.450000 1 1 R right 875 04-May-2016 11:02:37
323 169 136 self go 1 yes img8 1 0.650000 0.450000 1 1 R right 747 04-May-2016 11:02:40
323 170 261 self stop 0 yes img5 1 0.700000 0.500000 0 1 R NONE 0 04-May-2016 11:02:43
323 171 110 self go 1 no img14 1 0.700000 0.500000 1 1 R right 711 04-May-2016 11:02:46
323 172 184 other go 1 yes pic8 1 0.700000 0.500000 1 1 R left 736 04-May-2016 11:02:50
323 173 176 self go 1 no img16 1 0.700000 0.500000 1 1 R right 705 04-May-2016 11:02:53
323 174 81 other go 1 yes pic1 1 0.700000 0.500000 1 1 L right 927 04-May-2016 11:02:57
323 175 239 self go 1 no img15 1 0.700000 0.500000 1 1 R right 713 04-May-2016 11:03:01
323 176 163 self go 1 yes img3 1 0.700000 0.500000 1 1 L left 828 04-May-2016 11:03:04
323 177 107 self go 1 no img11 1 0.700000 0.500000 1 1 L left 803 04-May-2016 11:03:07
323 178 53 other go 1 yes pic5 1 0.700000 0.500000 0 0 R NONE 0 04-May-2016 11:03:11
323 179 42 self go 1 no img10 1 0.700000 0.500000 1 1 L left 810 04-May-2016 11:03:13
323 180 228 self go 1 yes img4 1 0.700000 0.500000 1 1 L left 819 04-May-2016 11:03:16
323 181 245 other go 1 yes pic5 1 0.700000 0.500000 1 1 R left 762 04-May-2016 11:03:20
323 182 162 self go 1 yes img2 1 0.700000 0.500000 1 1 L left 820 04-May-2016 11:03:23
323 183 7 self go 1 yes img7 1 0.700000 0.500000 1 1 R right 796 04-May-2016 11:03:27
323 184 150 other go 1 yes pic6 1 0.700000 0.500000 1 1 R left 779 04-May-2016 11:03:30
323 185 2 self go 1 yes img2 1 0.700000 0.500000 1 1 L left 641 04-May-2016 11:03:33
323 186 236 self go 1 no img12 1 0.700000 0.500000 1 1 L left 765 04-May-2016 11:03:37
323 187 191 other go 1 no pic15 1 0.700000 0.500000 1 1 R left 852 04-May-2016 11:03:40
323 188 177 other go 1 yes pic1 1 0.700000 0.500000 1 1 L right 723 04-May-2016 11:03:43
323 189 95 other go 1 no pic15 1 0.700000 0.500000 1 1 R left 756 04-May-2016 11:03:47
323 190 310 other stop 0 yes pic6 1 0.750000 0.550000 0 1 R NONE 0 04-May-2016 11:03:50
323 191 69 self go 1 yes img5 1 0.750000 0.550000 1 1 R right 824 04-May-2016 11:03:54
323 192 195 self go 1 yes img3 1 0.750000 0.550000 1 1 L left 774 04-May-2016 11:03:57
323 193 210 other go 1 yes pic2 1 0.750000 0.550000 1 1 L right 646 04-May-2016 11:04:00
323 194 31 other go 1 no pic15 1 0.750000 0.550000 1 1 R left 746 04-May-2016 11:04:03
323 195 255 other go 1 no pic15 1 0.750000 0.550000 1 1 R left 804 04-May-2016 11:04:06
323 196 275 other stop 0 yes pic3 1 0.800000 0.600000 1 0 L right 888 04-May-2016 11:04:10
323 197 277 other stop 0 yes pic5 1 0.750000 0.550000 0 1 R NONE 0 04-May-2016 11:04:13
323 198 25 other go 1 no pic9 1 0.750000 0.550000 1 1 L right 898 04-May-2016 11:04:17
323 199 113 other go 1 yes pic1 1 0.750000 0.550000 1 1 L right 831 04-May-2016 11:04:19
323 200 146 other go 1 yes pic2 1 0.750000 0.550000 1 1 L right 937 04-May-2016 11:04:23
323 201 243 other go 1 yes pic3 1 0.750000 0.550000 1 1 L right 971 04-May-2016 11:04:27
323 202 213 other go 1 yes pic5 1 0.750000 0.550000 0 0 R NONE 0 04-May-2016 11:04:31
323 203 159 other go 1 no pic15 1 0.750000 0.550000 1 1 R left 974 04-May-2016 11:04:33
323 204 133 self go 1 yes img5 1 0.750000 0.550000 1 1 R right 929 04-May-2016 11:04:36
323 205 274 other stop 0 yes pic2 1 0.800000 0.600000 1 0 L right 857 04-May-2016 11:04:39
323 206 122 other go 1 no pic10 1 0.800000 0.600000 1 1 L right 923 04-May-2016 11:04:43
323 207 168 self go 1 yes img8 1 0.800000 0.600000 1 1 R right 814 04-May-2016 11:04:46
323 208 201 self go 1 no img9 1 0.800000 0.600000 1 1 L left 932 04-May-2016 11:04:49
323 209 225 self go 1 yes img1 1 0.800000 0.600000 1 1 L left 911 04-May-2016 11:04:53
323 210 148 other go 1 yes pic4 1 0.800000 0.600000 1 1 L right 902 04-May-2016 11:04:56
323 211 141 self go 1 no img13 1 0.800000 0.600000 1 1 R right 784 04-May-2016 11:04:59
323 212 139 self go 1 no img11 1 0.800000 0.600000 1 1 L left 681 04-May-2016 11:05:02
323 213 297 self stop 0 no img9 1 0.750000 0.550000 0 1 L NONE 0 04-May-2016 11:05:05
323 214 127 other go 1 no pic15 1 0.750000 0.550000 1 1 R left 980 04-May-2016 11:05:08
323 215 152 other go 1 yes pic8 1 0.750000 0.550000 0 0 R NONE 0 04-May-2016 11:05:12
323 216 199 self go 1 yes img7 1 0.750000 0.550000 1 1 R right 573 04-May-2016 11:05:14
323 217 16 self go 1 no img16 1 0.750000 0.550000 1 1 R right 700 04-May-2016 11:05:17
323 218 218 other go 1 no pic10 1 0.750000 0.550000 1 1 L right 650 04-May-2016 11:05:20
323 219 111 self go 1 no img15 1 0.750000 0.550000 1 1 R right 826 04-May-2016 11:05:23
323 220 104 self go 1 yes img8 1 0.750000 0.550000 1 1 R right 653 04-May-2016 11:05:27
323 221 251 other go 1 no pic11 1 0.750000 0.550000 1 1 L right 837 04-May-2016 11:05:30
323 222 178 other go 1 yes pic2 1 0.750000 0.550000 1 1 L right 691 04-May-2016 11:05:33
323 223 39 self go 1 yes img7 1 0.750000 0.550000 1 1 R right 862 04-May-2016 11:05:36
323 224 50 other go 1 yes pic2 1 0.750000 0.550000 1 1 L right 572 04-May-2016 11:05:39
323 225 316 other stop 0 no pic12 1 0.800000 0.600000 1 0 L right 709 04-May-2016 11:05:42
323 226 179 other go 1 yes pic3 1 0.800000 0.600000 1 1 L right 822 04-May-2016 11:05:45
323 227 131 self go 1 yes img3 1 0.800000 0.600000 1 1 L left 781 04-May-2016 11:05:49
323 228 30 other go 1 no pic14 1 0.800000 0.600000 1 1 R left 927 04-May-2016 11:05:52
323 229 281 other stop 0 no pic9 1 0.750000 0.550000 0 1 L NONE 0 04-May-2016 11:05:56
323 230 248 other go 1 yes pic8 1 0.750000 0.550000 1 1 R left 695 04-May-2016 11:05:59
323 231 290 self stop 0 yes img2 1 0.800000 0.600000 1 0 L left 736 04-May-2016 11:06:02
323 232 253 other go 1 no pic13 1 0.800000 0.600000 1 1 R left 886 04-May-2016 11:06:06
323 233 4 self go 1 yes img4 1 0.800000 0.600000 1 1 L left 863 04-May-2016 11:06:10
323 234 283 other stop 0 no pic11 1 0.750000 0.550000 1 0 L right 714 04-May-2016 11:06:13
323 235 298 self stop 0 no img10 1 0.700000 0.500000 0 1 L NONE 0 04-May-2016 11:06:16
323 236 206 self go 1 no img14 1 0.700000 0.500000 1 1 R right 844 04-May-2016 11:06:20
323 237 66 self go 1 yes img2 1 0.700000 0.500000 1 1 L left 869 04-May-2016 11:06:23
323 238 90 other go 1 no pic10 1 0.700000 0.500000 1 1 L right 856 04-May-2016 11:06:26
323 239 188 other go 1 no pic12 1 0.700000 0.500000 1 1 L right 806 04-May-2016 11:06:30
323 240 238 self go 1 no img14 1 0.700000 0.500000 1 1 R right 966 04-May-2016 11:06:33
323 241 137 self go 1 no img9 1 0.700000 0.500000 1 1 L right 896 04-May-2016 11:06:36
323 242 68 self go 1 yes img4 1 0.700000 0.500000 1 1 L left 991 04-May-2016 11:06:39
323 243 112 self go 1 no img16 1 0.700000 0.500000 1 1 R right 735 04-May-2016 11:06:43
323 244 258 self stop 0 yes img2 1 0.750000 0.550000 1 0 L left 857 04-May-2016 11:06:46
323 245 287 other stop 0 no pic15 1 0.700000 0.500000 0 1 R NONE 0 04-May-2016 11:06:49
323 246 23 other go 1 yes pic7 1 0.700000 0.500000 1 1 R left 935 04-May-2016 11:06:53
323 247 76 self go 1 no img12 1 0.700000 0.500000 1 1 L left 677 04-May-2016 11:06:56
323 248 289 self stop 0 yes img1 1 0.750000 0.550000 1 0 L left 877 04-May-2016 11:07:00
323 249 174 self go 1 no img14 1 0.750000 0.550000 0 0 R NONE 0 04-May-2016 11:07:03
323 250 96 other go 1 no pic16 1 0.750000 0.550000 1 1 R left 666 04-May-2016 11:07:06
323 251 227 self go 1 yes img3 1 0.750000 0.550000 1 1 L left 721 04-May-2016 11:07:09
323 252 108 self go 1 no img12 1 0.750000 0.550000 1 1 L left 635 04-May-2016 11:07:13
323 253 144 self go 1 no img16 1 0.750000 0.550000 1 1 R right 908 04-May-2016 11:07:16
323 254 82 other go 1 yes pic2 1 0.750000 0.550000 1 1 L right 824 04-May-2016 11:07:19
323 255 219 other go 1 no pic11 1 0.750000 0.550000 0 0 L NONE 0 04-May-2016 11:07:22
323 256 145 other go 1 yes pic1 1 0.750000 0.550000 1 1 L right 567 04-May-2016 11:07:24
323 257 226 self go 1 yes img2 1 0.750000 0.550000 1 1 L left 568 04-May-2016 11:07:28
323 258 295 self stop 0 yes img7 1 0.700000 0.500000 1 0 R right 666 04-May-2016 11:07:31
323 259 208 self go 1 no img16 1 0.700000 0.500000 1 1 R right 858 04-May-2016 11:07:35
323 260 266 self stop 0 no img10 1 0.650000 0.450000 1 0 L left 647 04-May-2016 11:07:38
323 261 186 other go 1 no pic10 1 0.650000 0.450000 1 1 L right 795 04-May-2016 11:07:42
323 262 211 other go 1 yes pic3 1 0.650000 0.450000 1 1 L right 571 04-May-2016 11:07:45
323 263 54 other go 1 yes pic6 1 0.650000 0.450000 1 1 R left 694 04-May-2016 11:07:48
323 264 85 other go 1 yes pic5 1 0.650000 0.450000 1 1 R left 753 04-May-2016 11:07:52
323 265 48 self go 1 no img16 1 0.650000 0.450000 0 0 R NONE 0 04-May-2016 11:07:55
323 266 165 self go 1 yes img5 1 0.650000 0.450000 1 1 R right 776 04-May-2016 11:07:57
323 267 169 self go 1 no img9 1 0.650000 0.450000 1 1 L left 791 04-May-2016 11:08:00
323 268 77 self go 1 no img13 1 0.650000 0.450000 1 1 R right 689 04-May-2016 11:08:04
323 269 17 other go 1 yes pic1 1 0.650000 0.450000 1 1 L right 862 04-May-2016 11:08:07
323 270 121 other go 1 no pic9 1 0.650000 0.450000 1 1 L right 928 04-May-2016 11:08:11
323 271 296 self stop 0 yes img8 1 0.600000 0.400000 1 0 R right 685 04-May-2016 11:08:14
323 272 71 self go 1 yes img7 1 0.600000 0.400000 1 1 R right 864 04-May-2016 11:08:17
323 273 212 other go 1 yes pic4 1 0.600000 0.400000 1 1 L right 907 04-May-2016 11:08:20
323 274 100 self go 1 yes img4 1 0.600000 0.400000 1 1 L left 784 04-May-2016 11:08:23
323 275 187 other go 1 no pic11 1 0.600000 0.400000 1 1 L right 794 04-May-2016 11:08:26
323 276 41 self go 1 no img9 1 0.600000 0.400000 1 1 L left 700 04-May-2016 11:08:30
323 277 34 self go 1 yes img2 1 0.600000 0.400000 1 1 L left 955 04-May-2016 11:08:33
323 278 246 other go 1 yes pic6 1 0.600000 0.400000 1 1 R left 803 04-May-2016 11:08:36
323 279 223 other go 1 no pic15 1 0.600000 0.400000 1 1 R left 872 04-May-2016 11:08:40
323 280 5 self go 1 yes img5 1 0.600000 0.400000 1 1 R right 576 04-May-2016 11:08:43
323 281 67 self go 1 yes img3 1 0.600000 0.400000 1 1 L left 946 04-May-2016 11:08:46
323 282 109 self go 1 no img13 1 0.600000 0.400000 1 1 R right 768 04-May-2016 11:08:50
323 283 125 other go 1 no pic13 1 0.600000 0.400000 1 1 R left 814 04-May-2016 11:08:53
323 284 200 self go 1 yes img8 1 0.600000 0.400000 1 1 R right 832 04-May-2016 11:08:57
323 285 128 other go 1 no pic16 1 0.600000 0.400000 0 0 R NONE 0 04-May-2016 11:09:00
323 286 156 other go 1 no pic12 1 0.600000 0.400000 1 1 L right 600 04-May-2016 11:09:02
323 287 149 other go 1 yes pic5 1 0.600000 0.400000 1 1 R left 735 04-May-2016 11:09:05
323 288 244 other go 1 yes pic4 1 0.600000 0.400000 1 1 L right 609 04-May-2016 11:09:09
323 289 202 self go 1 no img10 1 0.600000 0.400000 1 1 L left 814 04-May-2016 11:09:12
323 290 80 self go 1 no img16 1 0.600000 0.400000 1 1 R right 857 04-May-2016 11:09:15
323 291 86 other go 1 yes pic6 1 0.600000 0.400000 1 1 R left 800 04-May-2016 11:09:18
323 292 308 other stop 0 yes pic4 1 0.550000 0.350000 0 1 L NONE 0 04-May-2016 11:09:22
323 293 64 other go 1 no pic16 1 0.550000 0.350000 1 1 R left 709 04-May-2016 11:09:25
323 294 240 self go 1 no img16 1 0.550000 0.350000 1 1 R right 761 04-May-2016 11:09:28
323 295 180 other go 1 yes pic4 1 0.550000 0.350000 1 1 L right 644 04-May-2016 11:09:31
323 296 142 self go 1 no img14 1 0.550000 0.350000 1 1 R right 681 04-May-2016 11:09:34
323 297 118 other go 1 yes pic6 1 0.550000 0.350000 1 1 R left 710 04-May-2016 11:09:37
323 298 305 other stop 0 yes pic1 1 0.600000 0.400000 1 0 L right 647 04-May-2016 11:09:40
323 299 302 self stop 0 no img14 1 0.550000 0.350000 0 1 R NONE 0 04-May-2016 11:09:44
323 300 233 self go 1 no img9 1 0.550000 0.350000 1 1 L left 722 04-May-2016 11:09:47
323 301 204 self go 1 no img12 1 0.550000 0.350000 1 1 L left 898 04-May-2016 11:09:50
323 302 237 self go 1 no img13 1 0.550000 0.350000 1 1 R right 733 04-May-2016 11:09:53
323 303 190 other go 1 no pic14 1 0.550000 0.350000 1 1 R left 867 04-May-2016 11:09:56
323 304 61 other go 1 no pic13 1 0.550000 0.350000 1 1 R left 775 04-May-2016 11:10:00
323 305 317 other stop 0 no pic13 1 0.600000 0.400000 0 1 R NONE 0 04-May-2016 11:10:04
323 306 58 other go 1 no pic10 1 0.600000 0.400000 1 1 L right 709 04-May-2016 11:10:07
323 307 318 other stop 0 no pic14 1 0.650000 0.450000 0 1 R NONE 0 04-May-2016 11:10:11
323 308 170 self go 1 no img10 1 0.650000 0.450000 1 1 L left 768 04-May-2016 11:10:14
323 309 11 self go 1 no img11 1 0.650000 0.450000 0 0 L NONE 0 04-May-2016 11:10:17
323 310 273 other stop 0 yes pic1 1 0.700000 0.500000 1 0 L right 720 04-May-2016 11:10:19
323 311 74 self go 1 no img10 1 0.700000 0.500000 1 1 L left 749 04-May-2016 11:10:22
323 312 256 other go 1 no pic16 1 0.700000 0.500000 1 1 R left 846 04-May-2016 11:10:26
323 313 278 other stop 0 yes pic6 1 0.650000 0.450000 0 1 R NONE 0 04-May-2016 11:10:29
323 314 264 self stop 0 yes img8 1 0.700000 0.500000 0 1 R NONE 0 04-May-2016 11:10:32
323 315 263 self stop 0 yes img7 1 0.750000 0.550000 1 0 R right 794 04-May-2016 11:10:35
323 316 164 self go 1 yes img4 1 0.750000 0.550000 1 1 L left 726 04-May-2016 11:10:39
323 317 33 self go 1 yes img1 1 0.750000 0.550000 1 1 L left 826 04-May-2016 11:10:42
323 318 319 other stop 0 no pic15 1 0.700000 0.500000 0 1 R NONE 0 04-May-2016 11:10:46
323 319 161 self go 1 yes img1 1 0.700000 0.500000 1 1 L left 873 04-May-2016 11:10:49
323 320 55 other go 1 yes pic7 1 0.700000 0.500000 1 1 R left 674 04-May-2016 11:10:52
