subject block trial unshuffledTrial goStop goNum threat img hand SSD DELTA gotResponse correctResp resp rt
10 1 1 52 go 1 no img2 1 0.000000 0.000000 1 1 yes 1176
10 1 2 43 go 1 yes img1 1 0.000000 0.000000 1 1 no 1042
10 1 3 32 go 1 no img2 1 0.000000 0.000000 1 1 yes 430
10 1 4 65 go 1 yes img1 1 0.000000 0.000000 1 1 no 456
10 1 5 33 go 1 yes img1 1 0.000000 0.000000 1 1 yes 352
10 1 6 76 go 1 no img2 1 0.000000 0.000000 1 1 yes 833
10 1 7 86 go 1 no img2 1 0.000000 0.000000 1 1 no 408
10 1 8 59 stop 0 yes img1 1 0.233300 0.033300 0 1 NORESP 3000
10 1 9 25 go 1 yes img1 1 0.233300 0.033300 1 1 no 1140
10 1 10 40 stop 0 no img2 1 0.266600 0.066600 1 0 yes 1984
10 1 11 87 go 1 yes img1 1 0.266600 0.066600 1 1 no 1000
10 1 12 18 go 1 no img2 1 0.266600 0.066600 1 1 yes 690
10 1 13 42 go 1 no img2 1 0.266600 0.066600 1 1 yes 657
10 1 14 47 go 1 yes img1 1 0.266600 0.066600 1 1 no 409
10 1 15 14 go 1 no img2 1 0.266600 0.066600 1 1 yes 398
10 1 16 122 go 1 no img2 1 0.266600 0.066600 1 1 no 388
10 1 17 9 stop 0 yes img1 1 0.233300 0.033300 1 0 no 2070
10 1 18 98 go 1 no img2 1 0.233300 0.033300 1 1 yes 586
10 1 19 44 go 1 no img2 1 0.233300 0.033300 1 1 yes 573
10 1 20 80 stop 0 no img2 1 0.200000 0.000000 1 0 yes 432
10 1 21 74 go 1 no img2 1 0.200000 0.000000 1 1 yes 829
10 1 22 120 stop 0 no img2 1 0.166700 -0.033300 1 0 yes 446
10 1 23 4 go 1 no img2 1 0.166700 -0.033300 1 1 yes 1044
10 1 24 117 go 1 yes img1 1 0.166700 -0.033300 1 1 no 617
10 1 25 97 go 1 yes img1 1 0.166700 -0.033300 1 1 no 578
10 1 26 50 stop 0 no img2 1 0.133400 -0.066600 0 1 NORESP 2999
10 1 27 22 go 1 no img2 1 0.133400 -0.066600 1 1 yes 618
10 1 28 119 stop 0 yes img1 1 0.166700 -0.033300 1 0 no 1942
10 1 29 48 go 1 no img2 1 0.166700 -0.033300 1 1 yes 592
10 1 30 114 go 1 no img2 1 0.166700 -0.033300 1 1 yes 509
10 1 31 92 go 1 no img2 1 0.166700 -0.033300 1 1 yes 481
10 1 32 75 go 1 yes img1 1 0.166700 -0.033300 1 1 yes 386
10 1 33 11 go 1 yes img1 1 0.166700 -0.033300 1 1 no 743
10 1 34 60 stop 0 no img2 1 0.133400 -0.066600 1 0 yes 1088
10 1 35 125 go 1 yes img1 1 0.133400 -0.066600 1 1 no 1170
10 1 36 72 go 1 no img2 1 0.133400 -0.066600 1 1 yes 843
10 1 37 127 go 1 yes img1 1 0.133400 -0.066600 1 1 no 467
10 1 38 109 stop 0 yes img1 1 0.100100 -0.099900 1 0 no 1466
10 1 39 106 go 1 no img2 1 0.100100 -0.099900 1 1 yes 627
10 1 40 138 go 1 no img2 1 0.100100 -0.099900 1 1 yes 553
10 1 41 55 go 1 yes img1 1 0.100100 -0.099900 1 1 no 438
10 1 42 104 go 1 no img2 1 0.100100 -0.099900 1 1 yes 538
10 1 43 113 go 1 yes img1 1 0.100100 -0.099900 1 1 no 491
10 1 44 102 go 1 no img2 1 0.100100 -0.099900 1 1 yes 451
10 1 45 79 stop 0 yes img1 1 0.066800 -0.133200 1 0 no 284
10 1 46 63 go 1 yes img1 1 0.066800 -0.133200 1 1 no 600
10 1 47 64 go 1 no img2 1 0.066800 -0.133200 1 1 yes 458
10 1 48 21 go 1 yes img1 1 0.066800 -0.133200 1 1 no 444
10 1 49 121 go 1 yes img1 1 0.066800 -0.133200 1 1 yes 348
10 1 50 128 go 1 no img2 1 0.066800 -0.133200 1 1 no 456
10 1 51 100 stop 0 no img2 1 0.033500 -0.166500 1 0 yes 749
10 1 52 126 go 1 no img2 1 0.033500 -0.166500 1 1 yes 687
10 1 53 139 stop 0 yes img1 1 0.000200 -0.199800 1 0 no 996
10 1 54 16 go 1 no img2 1 0.000200 -0.199800 1 1 yes 453
10 1 55 83 go 1 yes img1 1 0.000200 -0.199800 1 1 no 557
10 1 56 107 go 1 yes img1 1 0.000200 -0.199800 1 1 no 605
10 1 57 67 go 1 yes img1 1 0.000200 -0.199800 1 1 no 570
10 1 58 132 go 1 no img2 1 0.000200 -0.199800 1 1 yes 544
10 1 59 56 go 1 no img2 1 0.000200 -0.199800 1 1 no 561
10 1 60 23 go 1 yes img1 1 0.000200 -0.199800 1 1 no 803
10 1 61 69 stop 0 yes img1 1 -0.033100 -0.233100 1 0 no 838
10 1 62 15 go 1 yes img1 1 -0.033100 -0.233100 1 1 no 682
10 1 63 58 go 1 no img2 1 -0.033100 -0.233100 1 1 yes 807
10 1 64 85 go 1 yes img1 1 -0.033100 -0.233100 1 1 no 724
10 1 65 62 go 1 no img2 1 -0.033100 -0.233100 1 1 yes 856
10 1 66 6 go 1 no img2 1 -0.033100 -0.233100 1 1 yes 551
10 1 67 123 go 1 yes img1 1 -0.033100 -0.233100 1 1 no 673
10 1 68 57 go 1 yes img1 1 -0.033100 -0.233100 1 1 no 604
10 1 69 70 stop 0 no img2 1 -0.066400 -0.266400 1 0 yes 698
10 1 70 88 go 1 no img2 1 -0.066400 -0.266400 1 1 yes 773
10 1 71 101 go 1 yes img1 1 -0.066400 -0.266400 1 1 no 385
10 1 72 49 stop 0 yes img1 1 -0.099700 -0.299700 1 0 yes 474
10 1 73 10 stop 0 no img2 1 -0.133000 -0.333000 1 0 yes 802
10 1 74 135 go 1 yes img1 1 -0.133000 -0.333000 1 1 no 904
10 1 75 31 go 1 yes img1 1 -0.133000 -0.333000 1 1 no 634
10 1 76 2 go 1 no img2 1 -0.133000 -0.333000 1 1 yes 566
10 1 77 27 go 1 yes img1 1 -0.133000 -0.333000 1 1 no 388
10 1 78 37 go 1 yes img1 1 -0.133000 -0.333000 1 1 no 467
10 1 79 54 go 1 no img2 1 -0.133000 -0.333000 1 1 yes 564
10 1 80 61 go 1 yes img1 1 -0.133000 -0.333000 1 1 no 559
10 1 81 140 stop 0 no img2 1 -0.166300 -0.366300 1 0 yes 675
10 1 82 112 go 1 no img2 1 -0.166300 -0.366300 1 1 yes 614
10 1 83 93 go 1 yes img1 1 -0.166300 -0.366300 1 1 no 862
10 1 84 53 go 1 yes img1 1 -0.166300 -0.366300 1 1 no 663
10 1 85 51 go 1 yes img1 1 -0.166300 -0.366300 0 0 NORESP 2999
10 1 86 35 go 1 yes img1 1 -0.166300 -0.366300 0 0 NORESP 2999
10 1 87 71 go 1 yes img1 1 -0.166300 -0.366300 1 1 no 1236
10 1 88 41 go 1 yes img1 1 -0.166300 -0.366300 1 1 no 1156
10 1 89 99 stop 0 yes img1 1 -0.199600 -0.399600 1 0 no 1422
10 1 90 77 go 1 yes img1 1 -0.199600 -0.399600 1 1 no 539
10 1 91 68 go 1 no img2 1 -0.199600 -0.399600 1 1 yes 471
10 1 92 34 go 1 no img2 1 -0.199600 -0.399600 1 1 yes 672
10 1 93 78 go 1 no img2 1 -0.199600 -0.399600 1 1 yes 726
10 1 94 118 go 1 no img2 1 -0.199600 -0.399600 1 1 yes 618
10 1 95 89 stop 0 yes img1 1 -0.232900 -0.432900 1 0 no 592
10 1 96 73 go 1 yes img1 1 -0.232900 -0.432900 1 1 no 1069
10 1 97 111 go 1 yes img1 1 -0.232900 -0.432900 1 1 no 588
10 1 98 84 go 1 no img2 1 -0.232900 -0.432900 1 1 yes 668
10 1 99 136 go 1 no img2 1 -0.232900 -0.432900 1 1 no 702
10 1 100 82 go 1 no img2 1 -0.232900 -0.432900 1 1 yes 471
10 1 101 45 go 1 yes img1 1 -0.232900 -0.432900 1 1 no 509
10 1 102 90 stop 0 no img2 1 -0.266200 -0.466200 1 0 yes 344
10 1 103 26 go 1 no img2 1 -0.266200 -0.466200 1 1 yes 655
10 1 104 95 go 1 yes img1 1 -0.266200 -0.466200 1 1 no 661
10 1 105 96 go 1 no img2 1 -0.266200 -0.466200 1 1 yes 519
10 1 106 1 go 1 yes img1 1 -0.266200 -0.466200 1 1 yes 560
10 1 107 124 go 1 no img2 1 -0.266200 -0.466200 1 1 yes 641
10 1 108 28 go 1 no img2 1 -0.266200 -0.466200 1 1 yes 634
10 1 109 29 stop 0 yes img1 1 -0.299500 -0.499500 1 0 no 475
10 1 110 19 stop 0 yes img1 1 -0.332800 -0.532800 1 0 no 461
10 1 111 110 stop 0 no img2 1 -0.366100 -0.566100 1 0 yes 538
10 1 112 8 go 1 no img2 1 -0.366100 -0.566100 1 1 yes 735
10 1 113 13 go 1 yes img1 1 -0.366100 -0.566100 1 1 no 607
10 1 114 38 go 1 no img2 1 -0.366100 -0.566100 1 1 yes 512
10 1 115 81 go 1 yes img1 1 -0.366100 -0.566100 1 1 no 383
10 1 116 46 go 1 no img2 1 -0.366100 -0.566100 1 1 yes 475
10 1 117 30 stop 0 no img2 1 -0.399400 -0.599400 1 0 no 422
10 1 118 137 go 1 yes img1 1 -0.399400 -0.599400 1 1 yes 610
10 1 119 115 go 1 yes img1 1 -0.399400 -0.599400 1 1 no 677
10 1 120 129 stop 0 yes img1 1 -0.432700 -0.632700 1 0 no 523
10 1 121 134 go 1 no img2 1 -0.432700 -0.632700 1 1 yes 709
10 1 122 116 go 1 no img2 1 -0.432700 -0.632700 1 1 yes 507
10 1 123 3 go 1 yes img1 1 -0.432700 -0.632700 1 1 no 449
10 1 124 39 stop 0 yes img1 1 -0.466000 -0.666000 1 0 no 1171
10 1 125 131 go 1 yes img1 1 -0.466000 -0.666000 1 1 no 549
10 1 126 103 go 1 yes img1 1 -0.466000 -0.666000 1 1 no 607
10 1 127 66 go 1 no img2 1 -0.466000 -0.666000 1 1 yes 521
10 1 128 24 go 1 no img2 1 -0.466000 -0.666000 1 1 no 423
10 1 129 7 go 1 yes img1 1 -0.466000 -0.666000 1 1 no 608
10 1 130 108 go 1 no img2 1 -0.466000 -0.666000 1 1 yes 553
10 1 131 36 go 1 no img2 1 -0.466000 -0.666000 1 1 yes 1081
10 1 132 94 go 1 no img2 1 -0.466000 -0.666000 1 1 yes 522
10 1 133 130 stop 0 no img2 1 -0.499300 -0.699300 1 0 yes 519
10 1 134 17 go 1 yes img1 1 -0.499300 -0.699300 1 1 no 583
10 1 135 91 go 1 yes img1 1 -0.499300 -0.699300 1 1 no 583
10 1 136 12 go 1 no img2 1 -0.499300 -0.699300 1 1 yes 518
10 1 137 20 stop 0 no img2 1 -0.532600 -0.732600 1 0 yes 482
10 1 138 133 go 1 yes img1 1 -0.532600 -0.732600 1 1 no 591
10 1 139 5 go 1 yes img1 1 -0.532600 -0.732600 1 1 no 700
10 1 140 105 go 1 yes img1 1 -0.532600 -0.732600 1 1 no 553
