subject block trial unshuffledTrial goStop goNum threat img hand SSD DELTA gotResponse correctResp resp rt
6 1 1 81 go 1 yes img1 1 0.000000 0.000000 1 1 yes 3184
6 1 2 76 go 1 no img2 1 0.000000 0.000000 0 0 NORESP 3999
6 1 3 34 go 1 no img2 1 0.000000 0.000000 1 1 yes 379
6 1 4 84 go 1 no img2 1 0.000000 0.000000 1 1 yes 1
6 1 5 86 go 1 no img2 1 0.000000 0.000000 1 1 yes 280
6 1 6 94 go 1 no img2 1 0.000000 0.000000 1 1 yes 316
6 1 7 54 go 1 no img2 1 0.000000 0.000000 1 1 yes 349
6 1 8 69 stop 0 yes img1 1 0.233300 0.033300 1 0 no 1256
6 1 9 20 stop 0 no img2 1 0.200000 0.000000 0 1 NORESP 3999
6 1 10 138 go 1 no img2 1 0.200000 0.000000 1 1 yes 492
6 1 11 62 go 1 no img2 1 0.200000 0.000000 1 1 yes 251
6 1 12 43 go 1 yes img1 1 0.200000 0.000000 1 1 no 2313
6 1 13 93 go 1 yes img1 1 0.200000 0.000000 1 1 no 941
6 1 14 15 go 1 yes img1 1 0.200000 0.000000 1 1 no 1
6 1 15 39 stop 0 yes img1 1 0.233300 0.033300 1 0 no 196
6 1 16 14 go 1 no img2 1 0.233300 0.033300 1 1 yes 2468
6 1 17 9 stop 0 yes img1 1 0.200000 0.000000 1 0 yes 22
6 1 18 124 go 1 no img2 1 0.200000 0.000000 1 1 yes 1538
6 1 19 90 stop 0 no img2 1 0.166700 -0.033300 1 0 yes 3
6 1 20 73 go 1 yes img1 1 0.166700 -0.033300 1 1 no 1888
6 1 21 36 go 1 no img2 1 0.166700 -0.033300 1 1 yes 928
6 1 22 105 go 1 yes img1 1 0.166700 -0.033300 1 1 yes 1
6 1 23 85 go 1 yes img1 1 0.166700 -0.033300 1 1 no 425
6 1 24 97 go 1 yes img1 1 0.166700 -0.033300 1 1 no 1
6 1 25 25 go 1 yes img1 1 0.166700 -0.033300 1 1 no 349
6 1 26 116 go 1 no img2 1 0.166700 -0.033300 1 1 yes 1089
6 1 27 60 stop 0 no img2 1 0.133400 -0.066600 1 0 yes 169
6 1 28 87 go 1 yes img1 1 0.133400 -0.066600 1 1 no 1388
6 1 29 129 stop 0 yes img1 1 0.100100 -0.099900 1 0 no 2805
6 1 30 32 go 1 no img2 1 0.100100 -0.099900 1 1 yes 1019
6 1 31 24 go 1 no img2 1 0.100100 -0.099900 1 1 yes 511
6 1 32 106 go 1 no img2 1 0.100100 -0.099900 1 1 yes 219
6 1 33 6 go 1 no img2 1 0.100100 -0.099900 1 1 yes 457
6 1 34 41 go 1 yes img1 1 0.100100 -0.099900 1 1 no 1071
6 1 35 3 go 1 yes img1 1 0.100100 -0.099900 1 1 no 1
6 1 36 71 go 1 yes img1 1 0.100100 -0.099900 1 1 no 386
6 1 37 134 go 1 no img2 1 0.100100 -0.099900 1 1 yes 890
6 1 38 131 go 1 yes img1 1 0.100100 -0.099900 1 1 yes 357
6 1 39 83 go 1 yes img1 1 0.100100 -0.099900 1 1 no 1
6 1 40 136 go 1 no img2 1 0.100100 -0.099900 1 1 no 1
6 1 41 91 go 1 yes img1 1 0.100100 -0.099900 1 1 no 1169
6 1 42 12 go 1 no img2 1 0.100100 -0.099900 1 1 no 118
6 1 43 61 go 1 yes img1 1 0.100100 -0.099900 1 1 no 1025
6 1 44 46 go 1 no img2 1 0.100100 -0.099900 1 1 yes 801
6 1 45 77 go 1 yes img1 1 0.100100 -0.099900 1 1 yes 1
6 1 46 33 go 1 yes img1 1 0.100100 -0.099900 1 1 no 1
6 1 47 100 stop 0 no img2 1 0.066800 -0.133200 0 1 NORESP 3999
6 1 48 74 go 1 no img2 1 0.066800 -0.133200 1 1 yes 656
6 1 49 30 stop 0 no img2 1 0.100100 -0.099900 1 0 yes 624
6 1 50 72 go 1 no img2 1 0.100100 -0.099900 1 1 yes 1221
6 1 51 64 go 1 no img2 1 0.100100 -0.099900 1 1 yes 43
6 1 52 23 go 1 yes img1 1 0.100100 -0.099900 1 1 yes 1
6 1 53 103 go 1 yes img1 1 0.100100 -0.099900 1 1 no 2
6 1 54 42 go 1 no img2 1 0.100100 -0.099900 1 1 yes 681
6 1 55 44 go 1 no img2 1 0.100100 -0.099900 1 1 yes 1
6 1 56 16 go 1 no img2 1 0.100100 -0.099900 1 1 yes 1
6 1 57 75 go 1 yes img1 1 0.100100 -0.099900 1 1 yes 67
6 1 58 4 go 1 no img2 1 0.100100 -0.099900 1 1 yes 1071
6 1 59 29 stop 0 yes img1 1 0.066800 -0.133200 1 0 yes 7
6 1 60 31 go 1 yes img1 1 0.066800 -0.133200 1 1 no 972
6 1 61 89 stop 0 yes img1 1 0.033500 -0.166500 1 0 no 42
6 1 62 112 go 1 no img2 1 0.033500 -0.166500 1 1 yes 1260
6 1 63 37 go 1 yes img1 1 0.033500 -0.166500 1 1 yes 1
6 1 64 133 go 1 yes img1 1 0.033500 -0.166500 1 1 no 1
6 1 65 127 go 1 yes img1 1 0.033500 -0.166500 1 1 no 699
6 1 66 59 stop 0 yes img1 1 0.000200 -0.199800 1 0 no 742
6 1 67 27 go 1 yes img1 1 0.000200 -0.199800 1 1 no 1339
6 1 68 55 go 1 yes img1 1 0.000200 -0.199800 1 1 no 632
6 1 69 49 stop 0 yes img1 1 -0.033100 -0.233100 1 0 no 1
6 1 70 11 go 1 yes img1 1 -0.033100 -0.233100 1 1 no 3538
6 1 71 137 go 1 yes img1 1 -0.033100 -0.233100 1 1 no 614
6 1 72 57 go 1 yes img1 1 -0.033100 -0.233100 1 1 no 350
6 1 73 128 go 1 no img2 1 -0.033100 -0.233100 1 1 yes 929
6 1 74 26 go 1 no img2 1 -0.033100 -0.233100 1 1 yes 99
6 1 75 130 stop 0 no img2 1 -0.066400 -0.266400 1 0 yes 1
6 1 76 65 go 1 yes img1 1 -0.066400 -0.266400 1 1 no 2047
6 1 77 53 go 1 yes img1 1 -0.066400 -0.266400 1 1 no 1
6 1 78 117 go 1 yes img1 1 -0.066400 -0.266400 1 1 no 515
6 1 79 140 stop 0 no img2 1 -0.099700 -0.299700 1 0 no 1
6 1 80 78 go 1 no img2 1 -0.099700 -0.299700 1 1 yes 642
6 1 81 122 go 1 no img2 1 -0.099700 -0.299700 1 1 yes 2119
6 1 82 113 go 1 yes img1 1 -0.099700 -0.299700 1 1 no 1121
6 1 83 132 go 1 no img2 1 -0.099700 -0.299700 1 1 yes 866
6 1 84 38 go 1 no img2 1 -0.099700 -0.299700 1 1 yes 272
6 1 85 35 go 1 yes img1 1 -0.099700 -0.299700 1 1 no 891
6 1 86 21 go 1 yes img1 1 -0.099700 -0.299700 1 1 no 1
6 1 87 67 go 1 yes img1 1 -0.099700 -0.299700 1 1 no 384
6 1 88 125 go 1 yes img1 1 -0.099700 -0.299700 1 1 no 244
6 1 89 115 go 1 yes img1 1 -0.099700 -0.299700 1 1 no 348
6 1 90 10 stop 0 no img2 1 -0.133000 -0.333000 1 0 yes 1257
6 1 91 79 stop 0 yes img1 1 -0.166300 -0.366300 1 0 yes 92
6 1 92 40 stop 0 no img2 1 -0.199600 -0.399600 1 0 yes 3108
6 1 93 108 go 1 no img2 1 -0.199600 -0.399600 1 1 yes 409
6 1 94 48 go 1 no img2 1 -0.199600 -0.399600 1 1 yes 424
6 1 95 114 go 1 no img2 1 -0.199600 -0.399600 1 1 yes 363
6 1 96 110 stop 0 no img2 1 -0.232900 -0.432900 1 0 yes 1713
6 1 97 96 go 1 no img2 1 -0.232900 -0.432900 1 1 yes 112
6 1 98 92 go 1 no img2 1 -0.232900 -0.432900 1 1 yes 346
6 1 99 135 go 1 yes img1 1 -0.232900 -0.432900 1 1 yes 376
6 1 100 88 go 1 no img2 1 -0.232900 -0.432900 1 1 yes 1034
6 1 101 50 stop 0 no img2 1 -0.266200 -0.466200 1 0 yes 329
6 1 102 17 go 1 yes img1 1 -0.266200 -0.466200 1 1 no 1288
6 1 103 119 stop 0 yes img1 1 -0.299500 -0.499500 1 0 no 2743
6 1 104 13 go 1 yes img1 1 -0.299500 -0.499500 1 1 no 2
6 1 105 123 go 1 yes img1 1 -0.299500 -0.499500 1 1 no 197
6 1 106 118 go 1 no img2 1 -0.299500 -0.499500 1 1 no 0
6 1 107 18 go 1 no img2 1 -0.299500 -0.499500 1 1 yes 555
6 1 108 126 go 1 no img2 1 -0.299500 -0.499500 1 1 yes 511
6 1 109 139 stop 0 yes img1 1 -0.332800 -0.532800 1 0 no 2116
6 1 110 95 go 1 yes img1 1 -0.332800 -0.532800 1 1 no 476
6 1 111 121 go 1 yes img1 1 -0.332800 -0.532800 1 1 no 316
6 1 112 22 go 1 no img2 1 -0.332800 -0.532800 1 1 yes 1111
6 1 113 47 go 1 yes img1 1 -0.332800 -0.532800 1 1 yes 376
6 1 114 80 stop 0 no img2 1 -0.366100 -0.566100 1 0 yes 3707
6 1 115 102 go 1 no img2 1 -0.366100 -0.566100 1 1 yes 705
6 1 116 7 go 1 yes img1 1 -0.366100 -0.566100 1 1 no 901
6 1 117 66 go 1 no img2 1 -0.366100 -0.566100 1 1 yes 1241
6 1 118 120 stop 0 no img2 1 -0.399400 -0.599400 1 0 yes 3303
6 1 119 101 go 1 yes img1 1 -0.399400 -0.599400 1 1 no 1048
6 1 120 45 go 1 yes img1 1 -0.399400 -0.599400 1 1 no 354
6 1 121 1 go 1 yes img1 1 -0.399400 -0.599400 1 1 no 518
6 1 122 2 go 1 no img2 1 -0.399400 -0.599400 1 1 no 145
6 1 123 107 go 1 yes img1 1 -0.399400 -0.599400 1 1 no 1083
6 1 124 56 go 1 no img2 1 -0.399400 -0.599400 1 1 yes 996
6 1 125 104 go 1 no img2 1 -0.399400 -0.599400 1 1 yes 474
6 1 126 19 stop 0 yes img1 1 -0.432700 -0.632700 1 0 no 2540
6 1 127 52 go 1 no img2 1 -0.432700 -0.632700 1 1 yes 1328
6 1 128 99 stop 0 yes img1 1 -0.466000 -0.666000 1 0 no 2025
6 1 129 5 go 1 yes img1 1 -0.466000 -0.666000 1 1 no 392
6 1 130 109 stop 0 yes img1 1 -0.499300 -0.699300 0 1 NORESP 3999
6 1 131 82 go 1 no img2 1 -0.499300 -0.699300 1 1 yes 859
6 1 132 8 go 1 no img2 1 -0.499300 -0.699300 1 1 yes 1
6 1 133 28 go 1 no img2 1 -0.499300 -0.699300 1 1 yes 413
6 1 134 58 go 1 no img2 1 -0.499300 -0.699300 1 1 yes 232
6 1 135 63 go 1 yes img1 1 -0.499300 -0.699300 1 1 yes 1
6 1 136 51 go 1 yes img1 1 -0.499300 -0.699300 1 1 no 312
6 1 137 111 go 1 yes img1 1 -0.499300 -0.699300 1 1 no 60
6 1 138 68 go 1 no img2 1 -0.499300 -0.699300 1 1 no 266
6 1 139 70 stop 0 no img2 1 -0.466000 -0.666000 1 0 yes 1713
6 1 140 98 go 1 no img2 1 -0.466000 -0.666000 1 1 yes 201
