subject block trial unshuffledTrial goStop goNum threat img hand SSD DELTA gotResponse correctResp resp rt
2 1 1 8 go 1 no img2 1 0.000000 0.000000 1 1 yes 844
2 1 2 63 go 1 yes img1 1 0.000000 0.000000 1 1 no 514
2 1 3 16 go 1 no img2 1 0.000000 0.000000 1 1 yes 460
2 1 4 96 go 1 no img2 1 0.000000 0.000000 1 1 no 332
2 1 5 68 go 1 no img2 1 0.000000 0.000000 1 1 yes 659
2 1 6 38 go 1 no img2 1 0.000000 0.000000 1 1 yes 371
2 1 7 19 stop 0 yes img1 1 0.233300 0.033300 1 0 no 465
2 1 8 23 go 1 yes img1 1 0.233300 0.033300 0 0 NORESP 1499
2 1 9 35 go 1 yes img1 1 0.233300 0.033300 1 1 no 2
2 1 10 119 stop 0 yes img1 1 0.200000 0.000000 1 0 no 731
2 1 11 75 go 1 yes img1 1 0.200000 0.000000 0 0 NORESP 1500
2 1 12 110 stop 0 no img2 1 0.166700 -0.033300 0 1 NORESP 1499
2 1 13 112 go 1 no img2 1 0.166700 -0.033300 1 1 yes 1
2 1 14 139 stop 0 yes img1 1 0.200000 0.000000 1 0 no 819
2 1 15 103 go 1 yes img1 1 0.200000 0.000000 1 1 no 1006
2 1 16 104 go 1 no img2 1 0.200000 0.000000 1 1 no 427
2 1 17 40 stop 0 no img2 1 0.166700 -0.033300 1 0 yes 626
2 1 18 44 go 1 no img2 1 0.166700 -0.033300 1 1 yes 1042
2 1 19 54 go 1 no img2 1 0.166700 -0.033300 1 1 yes 575
2 1 20 113 go 1 yes img1 1 0.166700 -0.033300 1 1 no 525
2 1 21 106 go 1 no img2 1 0.166700 -0.033300 1 1 yes 535
2 1 22 95 go 1 yes img1 1 0.166700 -0.033300 1 1 no 661
2 1 23 128 go 1 no img2 1 0.166700 -0.033300 1 1 yes 442
2 1 24 127 go 1 yes img1 1 0.166700 -0.033300 1 1 no 483
2 1 25 71 go 1 yes img1 1 0.166700 -0.033300 1 1 no 384
2 1 26 108 go 1 no img2 1 0.166700 -0.033300 1 1 no 316
2 1 27 24 go 1 no img2 1 0.166700 -0.033300 1 1 yes 521
2 1 28 14 go 1 no img2 1 0.166700 -0.033300 1 1 yes 519
2 1 29 29 stop 0 yes img1 1 0.133400 -0.066600 1 0 no 1496
2 1 30 83 go 1 yes img1 1 0.133400 -0.066600 1 1 no 420
2 1 31 132 go 1 no img2 1 0.133400 -0.066600 1 1 yes 550
2 1 32 136 go 1 no img2 1 0.133400 -0.066600 1 1 yes 452
2 1 33 60 stop 0 no img2 1 0.100100 -0.099900 1 0 yes 525
2 1 34 82 go 1 no img2 1 0.100100 -0.099900 1 1 no 430
2 1 35 109 stop 0 yes img1 1 0.066800 -0.133200 1 0 no 520
2 1 36 9 stop 0 yes img1 1 0.033500 -0.166500 1 0 no 383
2 1 37 89 stop 0 yes img1 1 0.000200 -0.199800 0 1 NORESP 1499
2 1 38 129 stop 0 yes img1 1 0.033500 -0.166500 1 0 no 515
2 1 39 53 go 1 yes img1 1 0.033500 -0.166500 1 1 no 1089
2 1 40 107 go 1 yes img1 1 0.033500 -0.166500 1 1 no 632
2 1 41 59 stop 0 yes img1 1 0.000200 -0.199800 1 0 no 1205
2 1 42 66 go 1 no img2 1 0.000200 -0.199800 1 1 yes 559
2 1 43 92 go 1 no img2 1 0.000200 -0.199800 1 1 yes 361
2 1 44 13 go 1 yes img1 1 0.000200 -0.199800 1 1 yes 276
2 1 45 7 go 1 yes img1 1 0.000200 -0.199800 1 1 no 478
2 1 46 86 go 1 no img2 1 0.000200 -0.199800 1 1 yes 606
2 1 47 134 go 1 no img2 1 0.000200 -0.199800 1 1 yes 392
2 1 48 52 go 1 no img2 1 0.000200 -0.199800 1 1 yes 611
2 1 49 79 stop 0 yes img1 1 -0.033100 -0.233100 1 0 no 634
2 1 50 65 go 1 yes img1 1 -0.033100 -0.233100 1 1 no 484
2 1 51 28 go 1 no img2 1 -0.033100 -0.233100 1 1 yes 725
2 1 52 45 go 1 yes img1 1 -0.033100 -0.233100 1 1 no 657
2 1 53 18 go 1 no img2 1 -0.033100 -0.233100 1 1 yes 480
2 1 54 43 go 1 yes img1 1 -0.033100 -0.233100 1 1 no 645
2 1 55 77 go 1 yes img1 1 -0.033100 -0.233100 1 1 no 472
2 1 56 58 go 1 no img2 1 -0.033100 -0.233100 1 1 yes 419
2 1 57 88 go 1 no img2 1 -0.033100 -0.233100 1 1 yes 466
2 1 58 47 go 1 yes img1 1 -0.033100 -0.233100 1 1 no 677
2 1 59 130 stop 0 no img2 1 -0.066400 -0.266400 1 0 yes 806
2 1 60 93 go 1 yes img1 1 -0.066400 -0.266400 1 1 no 577
2 1 61 61 go 1 yes img1 1 -0.066400 -0.266400 1 1 no 433
2 1 62 31 go 1 yes img1 1 -0.066400 -0.266400 1 1 no 456
2 1 63 98 go 1 no img2 1 -0.066400 -0.266400 1 1 no 398
2 1 64 114 go 1 no img2 1 -0.066400 -0.266400 1 1 yes 1131
2 1 65 131 go 1 yes img1 1 -0.066400 -0.266400 1 1 no 572
2 1 66 80 stop 0 no img2 1 -0.099700 -0.299700 1 0 yes 1203
2 1 67 140 stop 0 no img2 1 -0.133000 -0.333000 1 0 yes 632
2 1 68 41 go 1 yes img1 1 -0.133000 -0.333000 1 1 no 899
2 1 69 91 go 1 yes img1 1 -0.133000 -0.333000 1 1 no 533
2 1 70 15 go 1 yes img1 1 -0.133000 -0.333000 1 1 no 587
2 1 71 90 stop 0 no img2 1 -0.166300 -0.366300 1 0 yes 756
2 1 72 27 go 1 yes img1 1 -0.166300 -0.366300 1 1 no 677
2 1 73 115 go 1 yes img1 1 -0.166300 -0.366300 1 1 no 411
2 1 74 51 go 1 yes img1 1 -0.166300 -0.366300 1 1 no 462
2 1 75 1 go 1 yes img1 1 -0.166300 -0.366300 1 1 no 337
2 1 76 122 go 1 no img2 1 -0.166300 -0.366300 1 1 yes 549
2 1 77 5 go 1 yes img1 1 -0.166300 -0.366300 1 1 no 501
2 1 78 34 go 1 no img2 1 -0.166300 -0.366300 1 1 yes 697
2 1 79 55 go 1 yes img1 1 -0.166300 -0.366300 1 1 no 412
2 1 80 81 go 1 yes img1 1 -0.166300 -0.366300 1 1 no 689
2 1 81 22 go 1 no img2 1 -0.166300 -0.366300 1 1 yes 654
2 1 82 26 go 1 no img2 1 -0.166300 -0.366300 1 1 yes 471
2 1 83 78 go 1 no img2 1 -0.166300 -0.366300 1 1 yes 391
2 1 84 30 stop 0 no img2 1 -0.199600 -0.399600 1 0 yes 890
2 1 85 67 go 1 yes img1 1 -0.199600 -0.399600 1 1 no 577
2 1 86 100 stop 0 no img2 1 -0.232900 -0.432900 1 0 yes 1043
2 1 87 50 stop 0 no img2 1 -0.266200 -0.466200 0 1 NORESP 1500
2 1 88 39 stop 0 yes img1 1 -0.232900 -0.432900 1 0 no 558
2 1 89 121 go 1 yes img1 1 -0.232900 -0.432900 0 0 NORESP 1499
2 1 90 17 go 1 yes img1 1 -0.232900 -0.432900 0 0 NORESP 1500
2 1 91 85 go 1 yes img1 1 -0.232900 -0.432900 1 1 no 821
2 1 92 56 go 1 no img2 1 -0.232900 -0.432900 1 1 yes 812
2 1 93 73 go 1 yes img1 1 -0.232900 -0.432900 1 1 no 548
2 1 94 42 go 1 no img2 1 -0.232900 -0.432900 1 1 yes 677
2 1 95 99 stop 0 yes img1 1 -0.266200 -0.466200 0 1 NORESP 1499
2 1 96 124 go 1 no img2 1 -0.266200 -0.466200 1 1 yes 711
2 1 97 74 go 1 no img2 1 -0.266200 -0.466200 1 1 yes 527
2 1 98 133 go 1 yes img1 1 -0.266200 -0.466200 1 1 no 500
2 1 99 36 go 1 no img2 1 -0.266200 -0.466200 1 1 yes 582
2 1 100 2 go 1 no img2 1 -0.266200 -0.466200 1 1 yes 410
2 1 101 69 stop 0 yes img1 1 -0.232900 -0.432900 0 1 NORESP 1499
2 1 102 33 go 1 yes img1 1 -0.232900 -0.432900 1 1 no 521
2 1 103 84 go 1 no img2 1 -0.232900 -0.432900 1 1 yes 457
2 1 104 6 go 1 no img2 1 -0.232900 -0.432900 1 1 no 363
2 1 105 70 stop 0 no img2 1 -0.199600 -0.399600 0 1 NORESP 1499
2 1 106 125 go 1 yes img1 1 -0.199600 -0.399600 1 1 no 607
2 1 107 123 go 1 yes img1 1 -0.199600 -0.399600 1 1 no 576
2 1 108 138 go 1 no img2 1 -0.199600 -0.399600 1 1 yes 483
2 1 109 46 go 1 no img2 1 -0.199600 -0.399600 1 1 yes 423
2 1 110 120 stop 0 no img2 1 -0.166300 -0.366300 0 1 NORESP 1500
2 1 111 94 go 1 no img2 1 -0.166300 -0.366300 1 1 yes 575
2 1 112 102 go 1 no img2 1 -0.166300 -0.366300 1 1 no 323
2 1 113 10 stop 0 no img2 1 -0.133000 -0.333000 0 1 NORESP 1499
2 1 114 4 go 1 no img2 1 -0.133000 -0.333000 1 1 yes 416
2 1 115 48 go 1 no img2 1 -0.133000 -0.333000 1 1 yes 462
2 1 116 20 stop 0 no img2 1 -0.099700 -0.299700 0 1 NORESP 1500
2 1 117 11 go 1 yes img1 1 -0.099700 -0.299700 1 1 yes 326
2 1 118 57 go 1 yes img1 1 -0.099700 -0.299700 1 1 no 566
2 1 119 126 go 1 no img2 1 -0.099700 -0.299700 1 1 no 268
2 1 120 49 stop 0 yes img1 1 -0.066400 -0.266400 0 1 NORESP 1500
2 1 121 3 go 1 yes img1 1 -0.066400 -0.266400 1 1 no 397
2 1 122 111 go 1 yes img1 1 -0.066400 -0.266400 1 1 no 386
2 1 123 97 go 1 yes img1 1 -0.066400 -0.266400 1 1 no 319
2 1 124 72 go 1 no img2 1 -0.066400 -0.266400 1 1 yes 627
2 1 125 118 go 1 no img2 1 -0.066400 -0.266400 1 1 yes 412
2 1 126 87 go 1 yes img1 1 -0.066400 -0.266400 1 1 no 657
2 1 127 12 go 1 no img2 1 -0.066400 -0.266400 1 1 yes 636
2 1 128 116 go 1 no img2 1 -0.066400 -0.266400 1 1 yes 624
2 1 129 37 go 1 yes img1 1 -0.066400 -0.266400 1 1 no 633
2 1 130 64 go 1 no img2 1 -0.066400 -0.266400 1 1 yes 409
2 1 131 101 go 1 yes img1 1 -0.066400 -0.266400 1 1 no 431
2 1 132 21 go 1 yes img1 1 -0.066400 -0.266400 1 1 no 656
2 1 133 137 go 1 yes img1 1 -0.066400 -0.266400 1 1 no 421
2 1 134 25 go 1 yes img1 1 -0.066400 -0.266400 1 1 no 527
2 1 135 62 go 1 no img2 1 -0.066400 -0.266400 1 1 yes 595
2 1 136 32 go 1 no img2 1 -0.066400 -0.266400 1 1 yes 362
2 1 137 135 go 1 yes img1 1 -0.066400 -0.266400 1 1 no 605
2 1 138 76 go 1 no img2 1 -0.066400 -0.266400 1 1 yes 633
2 1 139 117 go 1 yes img1 1 -0.066400 -0.266400 1 1 no 508
2 1 140 105 go 1 yes img1 1 -0.066400 -0.266400 1 1 no 422
