subj_code,is_neuroptimal,rt,trial,feedback,response,subj_idx,split_by,Time,q_init
neurOptimRevLearn_low_s001,1,0.749461400089786,1,1,0,1,0,t0,0.5
neurOptimRevLearn_low_s001,1,2.26753190066665,1,0,1,1,1,t1,0.5
neurOptimRevLearn_low_s001,1,4.42373770009726,1,0,1,1,2,t2,0.5
neurOptimRevLearn_low_s001,1,0.568735599983484,2,1,0,1,0,t0,0.5
neurOptimRevLearn_low_s001,1,2.81469859927893,2,0,1,1,1,t1,0.5
neurOptimRevLearn_low_s001,1,3.81889479979873,2,0,0,1,2,t2,0.5
neurOptimRevLearn_low_s001,1,0.703596499981359,3,1,0,1,0,t0,0.5
neurOptimRevLearn_low_s001,1,1.38914000056684,3,0,1,1,1,t1,0.5
neurOptimRevLearn_low_s001,1,3.87406220007688,3,0,1,1,2,t2,0.5
neurOptimRevLearn_low_s001,1,0.63882019999437,4,1,0,1,0,t0,0.5
neurOptimRevLearn_low_s001,1,1.73319139983505,4,0,1,1,1,t1,0.5
neurOptimRevLearn_low_s001,1,3.1506486996077,4,0,0,1,2,t2,0.5
neurOptimRevLearn_low_s001,1,0.613686600001529,5,1,0,1,0,t0,0.5
neurOptimRevLearn_low_s001,1,2.33567050006241,5,1,0,1,1,t1,0.5
neurOptimRevLearn_low_s001,1,2.06915330002084,5,1,0,1,2,t2,0.5
neurOptimRevLearn_low_s001,1,0.539824599865824,6,1,0,1,0,t0,0.5
neurOptimRevLearn_low_s001,1,1.92064869962633,6,0,1,1,1,t1,0.5
neurOptimRevLearn_low_s001,1,1.66119010001421,6,1,0,1,2,t2,0.5
neurOptimRevLearn_low_s001,1,0.569759499980137,7,1,0,1,0,t0,0.5
neurOptimRevLearn_low_s001,1,1.09400530066341,7,1,0,1,1,t1,0.5
neurOptimRevLearn_low_s001,1,4.34480480011553,7,0,1,1,2,t2,0.5
neurOptimRevLearn_low_s001,1,0.56675780005753,8,1,0,1,0,t0,0.5
neurOptimRevLearn_low_s001,1,1.52906719967723,8,0,1,1,1,t1,0.5
neurOptimRevLearn_low_s001,1,1.67737529985607,8,1,0,1,2,t2,0.5
neurOptimRevLearn_low_s001,1,0.525300800101832,9,1,0,1,0,t0,0.5
neurOptimRevLearn_low_s001,1,2.4679217999801,9,1,0,1,1,t1,0.5
neurOptimRevLearn_low_s001,1,1.69987690029666,9,0,0,1,2,t2,0.5
neurOptimRevLearn_low_s001,1,0.776395800057799,10,1,0,1,0,t0,0.5
neurOptimRevLearn_low_s001,1,1.57263810001314,10,1,0,1,1,t1,0.5
neurOptimRevLearn_low_s001,1,1.46322900010273,10,0,0,1,2,t2,0.5
neurOptimRevLearn_low_s001,1,0.617402700008825,11,1,0,1,0,t0,0.5
neurOptimRevLearn_low_s001,1,1.29487629979849,11,1,0,1,1,t1,0.5
neurOptimRevLearn_low_s001,1,2.42331900028512,11,0,1,1,2,t2,0.5
neurOptimRevLearn_low_s001,1,0.687659899936989,12,1,0,1,0,t0,0.5
neurOptimRevLearn_low_s001,1,2.26031370088458,12,1,0,1,1,t1,0.5
neurOptimRevLearn_low_s001,1,1.19454650022089,12,0,0,1,2,t2,0.5
neurOptimRevLearn_low_s001,1,0.70308390003629,13,1,0,1,0,t0,0.5
neurOptimRevLearn_low_s001,1,1.90191350039095,13,0,1,1,1,t1,0.5
neurOptimRevLearn_low_s001,1,1.15301810018718,13,0,0,1,2,t2,0.5
neurOptimRevLearn_low_s001,1,0.590134500060231,14,1,0,1,0,t0,0.5
neurOptimRevLearn_low_s001,1,1.77612250018865,14,1,0,1,1,t1,0.5
neurOptimRevLearn_low_s001,1,1.42719849990681,14,1,0,1,2,t2,0.5
neurOptimRevLearn_low_s001,1,0.568525200011209,15,1,0,1,0,t0,0.5
neurOptimRevLearn_low_s001,1,1.5333447996527,15,1,0,1,1,t1,0.5
neurOptimRevLearn_low_s001,1,1.55134500004351,15,0,1,1,2,t2,0.5
neurOptimRevLearn_low_s001,1,0.66533079999499,16,1,0,1,0,t0,0.5
neurOptimRevLearn_low_s001,1,1.70755010005087,16,1,0,1,1,t1,0.5
neurOptimRevLearn_low_s001,1,0.708622600417584,16,1,0,1,2,t2,0.5
neurOptimRevLearn_low_s001,1,0.712802499998361,17,1,0,1,0,t0,0.5
neurOptimRevLearn_low_s001,1,2.19927280023694,17,0,1,1,1,t1,0.5
neurOptimRevLearn_low_s001,1,1.82100120000541,17,0,1,1,2,t2,0.5
neurOptimRevLearn_low_s001,1,0.716630399925634,18,1,0,1,0,t0,0.5
neurOptimRevLearn_low_s001,1,2.48913129977882,18,1,0,1,1,t1,0.5
neurOptimRevLearn_low_s001,1,0.788269799668342,18,1,1,1,2,t2,0.5
neurOptimRevLearn_low_s001,1,0.769264800008386,19,1,0,1,0,t0,0.5
neurOptimRevLearn_low_s001,1,1.4012150997296,19,1,0,1,1,t1,0.5
neurOptimRevLearn_low_s001,1,1.4473774000071,19,0,1,1,2,t2,0.5
neurOptimRevLearn_low_s001,1,0.521265799878165,20,1,0,1,0,t0,0.5
neurOptimRevLearn_low_s001,1,1.22160580009222,20,1,0,1,1,t1,0.5
neurOptimRevLearn_low_s001,1,1.08730950020254,20,0,0,1,2,t2,0.5
neurOptimRevLearn_low_s001,1,0.514494200004265,21,1,0,1,0,t0,0.5
neurOptimRevLearn_low_s001,1,1.71205640025437,21,1,0,1,1,t1,0.5
neurOptimRevLearn_low_s001,1,1.19145860010758,21,0,1,1,2,t2,0.5
neurOptimRevLearn_low_s001,1,0.693970100022852,22,1,0,1,0,t0,0.5
neurOptimRevLearn_low_s001,1,2.72915630042553,22,0,1,1,1,t1,0.5
neurOptimRevLearn_low_s001,1,1.08776969974861,22,1,0,1,2,t2,0.5
neurOptimRevLearn_low_s001,1,0.476221499964595,23,1,0,1,0,t0,0.5
neurOptimRevLearn_low_s001,1,1.61926160007715,23,0,1,1,1,t1,0.5
neurOptimRevLearn_low_s001,1,1.0781665998511,23,1,0,1,2,t2,0.5
neurOptimRevLearn_low_s001,1,0.616216300055385,24,1,0,1,0,t0,0.5
neurOptimRevLearn_low_s001,1,2.52962180040777,24,1,0,1,1,t1,0.5
neurOptimRevLearn_low_s001,1,1.05921750003472,24,0,0,1,2,t2,0.5
neurOptimRevLearn_low_s001,1,0.679790900088847,25,1,0,1,0,t0,0.5
neurOptimRevLearn_low_s001,1,2.51902580074966,25,1,0,1,1,t1,0.5
neurOptimRevLearn_low_s001,1,0.779725899919868,25,0,1,1,2,t2,0.5
neurOptimRevLearn_low_s001,1,0.560127899982035,26,1,0,1,0,t0,0.5
neurOptimRevLearn_low_s001,1,1.66049530077726,26,1,0,1,1,t1,0.5
neurOptimRevLearn_low_s001,1,1.18296869983897,26,1,0,1,2,t2,0.5
neurOptimRevLearn_low_s001,1,0.72027530008927,27,1,0,1,0,t0,0.5
neurOptimRevLearn_low_s001,1,1.13762689940631,27,0,0,1,1,t1,0.5
neurOptimRevLearn_low_s001,1,0.945287600159645,27,0,1,1,2,t2,0.5
neurOptimRevLearn_low_s001,1,1.36197830014862,28,0,0,1,0,t0,0.5
neurOptimRevLearn_low_s001,1,1.06073850020766,28,1,0,1,1,t1,0.5
neurOptimRevLearn_low_s001,1,0.775651600211859,28,0,1,1,2,t2,0.5
neurOptimRevLearn_low_s001,1,0.955180899938568,29,1,0,1,0,t0,0.5
neurOptimRevLearn_low_s001,1,3.05032679997385,29,1,0,1,1,t1,0.5
neurOptimRevLearn_low_s001,1,0.734128400217742,29,0,1,1,2,t2,0.5
neurOptimRevLearn_low_s001,1,0.71377499983646,30,1,0,1,0,t0,0.5
neurOptimRevLearn_low_s001,1,2.18939930014312,30,1,0,1,1,t1,0.5
neurOptimRevLearn_low_s001,1,0.617759000044316,30,1,0,1,2,t2,0.5
neurOptimRevLearn_low_s001,1,0.510154800023884,31,1,0,1,0,t0,0.5
neurOptimRevLearn_low_s001,1,1.69974649976939,31,1,0,1,1,t1,0.5
neurOptimRevLearn_low_s001,1,0.928470400162041,31,1,0,1,2,t2,0.5
neurOptimRevLearn_low_s001,1,0.447385500185192,32,1,0,1,0,t0,0.5
neurOptimRevLearn_low_s001,1,1.2587919998914,32,1,0,1,1,t1,0.5
neurOptimRevLearn_low_s001,1,0.916407099924982,32,0,1,1,2,t2,0.5
neurOptimRevLearn_low_s001,1,0.586193299852312,33,1,0,1,0,t0,0.5
neurOptimRevLearn_low_s001,1,1.01058970019221,33,1,0,1,1,t1,0.5
neurOptimRevLearn_low_s001,1,0.686179299838841,33,0,1,1,2,t2,0.5
neurOptimRevLearn_low_s001,1,0.715922599891201,34,1,0,1,0,t0,0.5
neurOptimRevLearn_low_s001,1,1.1104159001261,34,1,0,1,1,t1,0.5
neurOptimRevLearn_low_s001,1,0.735844899900258,34,0,1,1,2,t2,0.5
neurOptimRevLearn_low_s001,1,0.633153599919751,35,1,0,1,0,t0,0.5
neurOptimRevLearn_low_s001,1,1.35535779967904,35,0,0,1,1,t1,0.5
neurOptimRevLearn_low_s001,1,0.692793699912727,35,1,0,1,2,t2,0.5
neurOptimRevLearn_low_s001,1,0.779590899823234,36,0,0,1,0,t0,0.5
neurOptimRevLearn_low_s001,1,1.20522090047598,36,0,1,1,1,t1,0.5
neurOptimRevLearn_low_s001,1,0.946959900204092,36,1,0,1,2,t2,0.5
neurOptimRevLearn_low_s001,1,0.937315999995917,37,0,1,1,0,t0,0.5
neurOptimRevLearn_low_s001,1,2.06078610010445,37,0,1,1,1,t1,0.5
neurOptimRevLearn_low_s001,1,1.27752629993483,37,1,0,1,2,t2,0.5
neurOptimRevLearn_low_s001,1,0.478314599953592,38,1,0,1,0,t0,0.5
neurOptimRevLearn_low_s001,1,1.46023660060018,38,0,1,1,1,t1,0.5
neurOptimRevLearn_low_s001,1,2.28759629977867,38,1,0,1,2,t2,0.5
neurOptimRevLearn_low_s001,1,0.747265599900857,39,1,0,1,0,t0,0.5
neurOptimRevLearn_low_s001,1,2.42954059969634,39,0,1,1,1,t1,0.5
neurOptimRevLearn_low_s001,1,1.15631949994713,39,0,0,1,2,t2,0.5
neurOptimRevLearn_low_s001,1,1.45976109988987,40,1,0,1,0,t0,0.5
neurOptimRevLearn_low_s001,1,1.7091130996123,40,0,0,1,1,t1,0.5
neurOptimRevLearn_low_s001,1,0.712757399771363,40,1,0,1,2,t2,0.5
neurOptimRevLearn_low_s001,1,0.587375300005078,41,0,0,1,0,t0,0.5
neurOptimRevLearn_low_s001,1,0.730493299663067,41,0,0,1,1,t1,0.5
neurOptimRevLearn_low_s001,1,0.995854599867016,41,0,0,1,2,t2,0.5
neurOptimRevLearn_low_s001,1,0.662897299975157,42,1,1,1,0,t0,0.5
neurOptimRevLearn_low_s001,1,1.13422500062734,42,0,0,1,1,t1,0.5
neurOptimRevLearn_low_s001,1,0.630608799867332,42,0,0,1,2,t2,0.5
neurOptimRevLearn_low_s001,1,0.823204200016335,43,0,0,1,0,t0,0.5
neurOptimRevLearn_low_s001,1,0.773395399563015,43,1,1,1,1,t1,0.5
neurOptimRevLearn_low_s001,1,0.739028099924326,43,0,0,1,2,t2,0.5
neurOptimRevLearn_low_s001,1,0.790094399824739,44,1,1,1,0,t0,0.5
neurOptimRevLearn_low_s001,1,1.00112330075353,44,1,1,1,1,t1,0.5
neurOptimRevLearn_low_s001,1,0.788270900025964,44,0,0,1,2,t2,0.5
neurOptimRevLearn_low_s001,1,0.615273399977014,45,1,1,1,0,t0,0.5
neurOptimRevLearn_low_s001,1,1.00915780011564,45,0,0,1,1,t1,0.5
neurOptimRevLearn_low_s001,1,2.32154559995979,45,0,0,1,2,t2,0.5
neurOptimRevLearn_low_s001,1,1.16379469982348,46,1,1,1,0,t0,0.5
neurOptimRevLearn_low_s001,1,0.603856600821018,46,0,0,1,1,t1,0.5
neurOptimRevLearn_low_s001,1,0.847828000318259,46,0,0,1,2,t2,0.5
neurOptimRevLearn_low_s001,1,0.653501299908385,47,1,1,1,0,t0,0.5
neurOptimRevLearn_low_s001,1,1.42597649991512,47,0,0,1,1,t1,0.5
neurOptimRevLearn_low_s001,1,1.16624630009756,47,1,1,1,2,t2,0.5
neurOptimRevLearn_low_s001,1,0.604579899925739,48,1,1,1,0,t0,0.5
neurOptimRevLearn_low_s001,1,1.6632602000609,48,0,1,1,1,t1,0.5
neurOptimRevLearn_low_s001,1,1.29287780029699,48,1,1,1,2,t2,0.5
neurOptimRevLearn_low_s001,1,0.672893500188366,49,0,1,1,0,t0,0.5
neurOptimRevLearn_low_s001,1,0.867436200380325,49,0,0,1,1,t1,0.5
neurOptimRevLearn_low_s001,1,1.05658919969574,49,1,1,1,2,t2,0.5
neurOptimRevLearn_low_s001,1,0.452064100187272,50,0,0,1,0,t0,0.5
neurOptimRevLearn_low_s001,1,0.864406899549067,50,1,1,1,1,t1,0.5
neurOptimRevLearn_low_s001,1,0.982575200032443,50,1,1,1,2,t2,0.5
neurOptimRevLearn_low_s001,1,0.718905000016093,51,1,1,1,0,t0,0.5
neurOptimRevLearn_low_s001,1,1.98608259949833,51,0,0,1,1,t1,0.5
neurOptimRevLearn_low_s001,1,1.14887519972399,51,1,1,1,2,t2,0.5
neurOptimRevLearn_low_s001,1,0.832025499781594,52,1,1,1,0,t0,0.5
neurOptimRevLearn_low_s001,1,2.00789880007505,52,1,1,1,1,t1,0.5
neurOptimRevLearn_low_s001,1,1.07228539977223,52,1,1,1,2,t2,0.5
neurOptimRevLearn_low_s001,1,0.711535099893808,53,1,1,1,0,t0,0.5
neurOptimRevLearn_low_s001,1,1.14669770002365,53,0,0,1,1,t1,0.5
neurOptimRevLearn_low_s001,1,0.857978499960154,53,0,0,1,2,t2,0.5
neurOptimRevLearn_low_s001,1,0.778298599878326,54,1,1,1,0,t0,0.5
neurOptimRevLearn_low_s001,1,1.3525336002931,54,0,0,1,1,t1,0.5
neurOptimRevLearn_low_s001,1,0.68096169969067,54,0,0,1,2,t2,0.5
neurOptimRevLearn_low_s001,1,0.789552200119942,55,1,1,1,0,t0,0.5
neurOptimRevLearn_low_s001,1,0.586311499588192,55,0,1,1,1,t1,0.5
neurOptimRevLearn_low_s001,1,1.4555770996958,55,0,0,1,2,t2,0.5
neurOptimRevLearn_low_s001,1,0.971923900069669,56,0,1,1,0,t0,0.5
neurOptimRevLearn_low_s001,1,3.45618939958513,56,1,1,1,1,t1,0.5
neurOptimRevLearn_low_s001,1,0.939396199770272,56,1,1,1,2,t2,0.5
neurOptimRevLearn_low_s001,1,1.50412159995176,57,0,0,1,0,t0,0.5
neurOptimRevLearn_low_s001,1,1.03309850022197,57,1,1,1,1,t1,0.5
neurOptimRevLearn_low_s001,1,0.872423200402409,57,0,0,1,2,t2,0.5
neurOptimRevLearn_low_s001,1,0.681289500091225,58,1,1,1,0,t0,0.5
neurOptimRevLearn_low_s001,1,1.19402590021491,58,1,1,1,1,t1,0.5
neurOptimRevLearn_low_s001,1,1.68934920011088,58,0,0,1,2,t2,0.5
neurOptimRevLearn_low_s001,1,0.549268200062215,59,1,1,1,0,t0,0.5
neurOptimRevLearn_low_s001,1,1.22352479957044,59,1,1,1,1,t1,0.5
neurOptimRevLearn_low_s001,1,0.69632519967854,59,1,1,1,2,t2,0.5
neurOptimRevLearn_low_s001,1,0.845987899927422,60,0,0,1,0,t0,0.5
neurOptimRevLearn_low_s001,1,1.21436469908804,60,1,1,1,1,t1,0.5
neurOptimRevLearn_low_s001,1,0.812233000062406,60,1,1,1,2,t2,0.5
neurOptimRevLearn_low_s001,1,1.08544679987244,61,1,1,1,0,t0,0.5
neurOptimRevLearn_low_s001,1,0.877808699384332,61,0,1,1,1,t1,0.5
neurOptimRevLearn_low_s001,1,0.973181799985468,61,0,0,1,2,t2,0.5
neurOptimRevLearn_low_s001,1,1.92207950004376,62,0,1,1,0,t0,0.5
neurOptimRevLearn_low_s001,1,1.22597240004689,62,1,1,1,1,t1,0.5
neurOptimRevLearn_low_s001,1,0.975033700000495,62,1,1,1,2,t2,0.5
neurOptimRevLearn_low_s001,1,1.00930229993537,63,0,0,1,0,t0,0.5
neurOptimRevLearn_low_s001,1,1.25791919976473,63,1,1,1,1,t1,0.5
neurOptimRevLearn_low_s001,1,1.30345880007371,63,1,1,1,2,t2,0.5
neurOptimRevLearn_low_s001,1,1.25603549997322,64,0,0,1,0,t0,0.5
neurOptimRevLearn_low_s001,1,1.12641519960016,64,1,1,1,1,t1,0.5
neurOptimRevLearn_low_s001,1,1.07785140024498,64,1,1,1,2,t2,0.5
neurOptimRevLearn_low_s001,1,1.22931079985574,65,1,1,1,0,t0,0.5
neurOptimRevLearn_low_s001,1,0.95990139991045,65,1,1,1,1,t1,0.5
neurOptimRevLearn_low_s001,1,0.877345900051296,65,1,1,1,2,t2,0.5
neurOptimRevLearn_low_s001,1,1.05601139995269,66,1,1,1,0,t0,0.5
neurOptimRevLearn_low_s001,1,1.30558069981635,66,1,1,1,1,t1,0.5
neurOptimRevLearn_low_s001,1,0.658809800166637,66,0,0,1,2,t2,0.5
neurOptimRevLearn_low_s001,1,0.731780200032517,67,1,1,1,0,t0,0.5
neurOptimRevLearn_low_s001,1,1.00554569996893,67,1,1,1,1,t1,0.5
neurOptimRevLearn_low_s001,1,0.906260499730706,67,1,1,1,2,t2,0.5
neurOptimRevLearn_low_s001,1,2.44646990019828,68,1,1,1,0,t0,0.5
neurOptimRevLearn_low_s001,1,1.4578803004697,68,1,1,1,1,t1,0.5
neurOptimRevLearn_low_s001,1,1.00459290016443,68,1,1,1,2,t2,0.5
neurOptimRevLearn_low_s001,1,0.625619299942628,69,1,1,1,0,t0,0.5
neurOptimRevLearn_low_s001,1,1.14220170024782,69,1,1,1,1,t1,0.5
neurOptimRevLearn_low_s001,1,1.36010210029781,69,1,1,1,2,t2,0.5
neurOptimRevLearn_low_s001,1,0.636131100123748,70,1,1,1,0,t0,0.5
neurOptimRevLearn_low_s001,1,0.844880000688136,70,1,1,1,1,t1,0.5
neurOptimRevLearn_low_s001,1,1.40663369977847,70,1,1,1,2,t2,0.5
neurOptimRevLearn_low_s001,1,0.750883099855855,71,1,1,1,0,t0,0.5
neurOptimRevLearn_low_s001,1,1.21461030002683,71,1,1,1,1,t1,0.5
neurOptimRevLearn_low_s001,1,1.00927849998698,71,1,1,1,2,t2,0.5
neurOptimRevLearn_low_s001,1,0.801164200063795,72,1,1,1,0,t0,0.5
neurOptimRevLearn_low_s001,1,1.24545720033348,72,1,1,1,1,t1,0.5
neurOptimRevLearn_low_s001,1,1.42839040001854,72,0,0,1,2,t2,0.5
neurOptimRevLearn_low_s001,1,0.62844550004229,73,1,1,1,0,t0,0.5
neurOptimRevLearn_low_s001,1,1.03433750011027,73,1,1,1,1,t1,0.5
neurOptimRevLearn_low_s001,1,0.658048400189728,73,0,0,1,2,t2,0.5
neurOptimRevLearn_low_s001,1,0.74919840018265,74,1,1,1,0,t0,0.5
neurOptimRevLearn_low_s001,1,0.866733900271356,74,1,1,1,1,t1,0.5
neurOptimRevLearn_low_s001,1,0.875664900057018,74,1,1,1,2,t2,0.5
neurOptimRevLearn_low_s001,1,0.580078500090167,75,1,1,1,0,t0,0.5
neurOptimRevLearn_low_s001,1,0.835859199985862,75,1,1,1,1,t1,0.5
neurOptimRevLearn_low_s001,1,0.634834999684244,75,0,0,1,2,t2,0.5
neurOptimRevLearn_low_s001,1,0.558897600043565,76,1,1,1,0,t0,0.5
neurOptimRevLearn_low_s001,1,1.33844329975545,76,1,1,1,1,t1,0.5
neurOptimRevLearn_low_s001,1,0.543492099735886,76,0,0,1,2,t2,0.5
neurOptimRevLearn_low_s001,1,1.31217409996316,77,1,1,1,0,t0,0.5
neurOptimRevLearn_low_s001,1,1.07733959984034,77,1,1,1,1,t1,0.5
neurOptimRevLearn_low_s001,1,0.979564699809998,77,1,1,1,2,t2,0.5
neurOptimRevLearn_low_s001,1,0.983244700124487,78,1,1,1,0,t0,0.5
neurOptimRevLearn_low_s001,1,0.951553200371563,78,1,1,1,1,t1,0.5
neurOptimRevLearn_low_s001,1,1.75372959999368,78,0,0,1,2,t2,0.5
neurOptimRevLearn_low_s001,1,1.23851870000362,79,0,0,1,0,t0,0.5
neurOptimRevLearn_low_s001,1,0.855707200244069,79,0,1,1,1,t1,0.5
neurOptimRevLearn_low_s001,1,1.46957129985094,79,1,1,1,2,t2,0.5
neurOptimRevLearn_low_s001,1,1.60575069999322,80,0,1,1,0,t0,0.5
neurOptimRevLearn_low_s001,1,0.79673910047859,80,1,1,1,1,t1,0.5
neurOptimRevLearn_low_s001,1,1.47030839975923,80,1,1,1,2,t2,0.5
neurOptimRevLearn_low_s001,1,0.964392699999735,81,1,0,1,0,t0,0.5
neurOptimRevLearn_low_s001,1,1.00635909941047,81,0,1,1,1,t1,0.5
neurOptimRevLearn_low_s001,1,0.968675999902189,81,0,1,1,2,t2,0.5
neurOptimRevLearn_low_s001,1,1.23312769993208,82,0,1,1,0,t0,0.5
neurOptimRevLearn_low_s001,1,0.715765099972487,82,0,1,1,1,t1,0.5
neurOptimRevLearn_low_s001,1,0.670713600236923,82,1,0,1,2,t2,0.5
neurOptimRevLearn_low_s001,1,0.649947799975053,83,0,1,1,0,t0,0.5
neurOptimRevLearn_low_s001,1,0.824818400666118,83,0,1,1,1,t1,0.5
neurOptimRevLearn_low_s001,1,0.966390899848193,83,1,0,1,2,t2,0.5
neurOptimRevLearn_low_s001,1,0.462832699995488,84,1,0,1,0,t0,0.5
neurOptimRevLearn_low_s001,1,1.31810839939863,84,0,0,1,1,t1,0.5
neurOptimRevLearn_low_s001,1,1.31103610014543,84,0,1,1,2,t2,0.5
neurOptimRevLearn_low_s001,1,0.550049700075761,85,0,0,1,0,t0,0.5
neurOptimRevLearn_low_s001,1,1.61623249948025,85,0,1,1,1,t1,0.5
neurOptimRevLearn_low_s001,1,0.706145800184459,85,1,1,1,2,t2,0.5
neurOptimRevLearn_low_s001,1,1.52929250011221,86,1,0,1,0,t0,0.5
neurOptimRevLearn_low_s001,1,1.44716180022806,86,0,1,1,1,t1,0.5
neurOptimRevLearn_low_s001,1,1.01380190020427,86,0,1,1,2,t2,0.5
neurOptimRevLearn_low_s001,1,0.844973600003868,87,1,0,1,0,t0,0.5
neurOptimRevLearn_low_s001,1,1.78056909982115,87,1,1,1,1,t1,0.5
neurOptimRevLearn_low_s001,1,1.41193020017818,87,1,0,1,2,t2,0.5
neurOptimRevLearn_low_s001,1,0.623180999886245,88,0,0,1,0,t0,0.5
neurOptimRevLearn_low_s001,1,0.970966099761426,88,0,1,1,1,t1,0.5
neurOptimRevLearn_low_s001,1,1.59440909978002,88,0,1,1,2,t2,0.5
neurOptimRevLearn_low_s001,1,1.78469659993425,89,1,0,1,0,t0,0.5
neurOptimRevLearn_low_s001,1,0.819749299436808,89,0,1,1,1,t1,0.5
neurOptimRevLearn_low_s001,1,0.886868999805301,89,1,0,1,2,t2,0.5
neurOptimRevLearn_low_s001,1,0.891812300076708,90,1,0,1,0,t0,0.5
neurOptimRevLearn_low_s001,1,0.981303100474179,90,0,1,1,1,t1,0.5
neurOptimRevLearn_low_s001,1,0.92079810006544,90,0,1,1,2,t2,0.5
neurOptimRevLearn_low_s001,1,1.254225499928,91,1,0,1,0,t0,0.5
neurOptimRevLearn_low_s001,1,1.2858114996925,91,0,1,1,1,t1,0.5
neurOptimRevLearn_low_s001,1,0.563122600317001,91,1,0,1,2,t2,0.5
neurOptimRevLearn_low_s001,1,0.536836400162429,92,1,0,1,0,t0,0.5
neurOptimRevLearn_low_s001,1,1.23928249999881,92,1,0,1,1,t1,0.5
neurOptimRevLearn_low_s001,1,1.06437720032409,92,0,1,1,2,t2,0.5
neurOptimRevLearn_low_s001,1,0.621504799928516,93,1,0,1,0,t0,0.5
neurOptimRevLearn_low_s001,1,1.63840789999813,93,1,0,1,1,t1,0.5
neurOptimRevLearn_low_s001,1,0.935210700146854,93,0,1,1,2,t2,0.5
neurOptimRevLearn_low_s001,1,0.640793900005519,94,1,0,1,0,t0,0.5
neurOptimRevLearn_low_s001,1,1.69389420002699,94,1,0,1,1,t1,0.5
neurOptimRevLearn_low_s001,1,1.09728260012344,94,0,1,1,2,t2,0.5
neurOptimRevLearn_low_s001,1,0.689504500012845,95,1,0,1,0,t0,0.5
neurOptimRevLearn_low_s001,1,2.44773790054023,95,1,0,1,1,t1,0.5
neurOptimRevLearn_low_s001,1,1.06669960031286,95,0,0,1,2,t2,0.5
neurOptimRevLearn_low_s001,1,1.04598539997824,96,1,0,1,0,t0,0.5
neurOptimRevLearn_low_s001,1,1.33135550003499,96,1,0,1,1,t1,0.5
neurOptimRevLearn_low_s001,1,1.0182933001779,96,0,1,1,2,t2,0.5
neurOptimRevLearn_low_s001,1,0.530511499848217,97,1,0,1,0,t0,0.5
neurOptimRevLearn_low_s001,1,1.53233879990876,97,1,0,1,1,t1,0.5
neurOptimRevLearn_low_s001,1,0.947516299784184,97,0,1,1,2,t2,0.5
neurOptimRevLearn_low_s001,1,0.487660099985078,98,1,0,1,0,t0,0.5
neurOptimRevLearn_low_s001,1,1.09212089981884,98,0,1,1,1,t1,0.5
neurOptimRevLearn_low_s001,1,1.1775003997609,98,0,1,1,2,t2,0.5
neurOptimRevLearn_low_s001,1,0.583925199927762,99,1,0,1,0,t0,0.5
neurOptimRevLearn_low_s001,1,0.899258700199425,99,1,0,1,1,t1,0.5
neurOptimRevLearn_low_s001,1,0.580652899574488,99,1,0,1,2,t2,0.5
neurOptimRevLearn_low_s001,1,0.90645380015485,100,1,0,1,0,t0,0.5
neurOptimRevLearn_low_s001,1,1.45216429978609,100,1,0,1,1,t1,0.5
neurOptimRevLearn_low_s001,1,0.5195701001212,100,0,1,1,2,t2,0.5
neurOptimRevLearn_low_s001,1,0.66202859999612,101,1,0,1,0,t0,0.5
neurOptimRevLearn_low_s001,1,0.905402099713683,101,1,0,1,1,t1,0.5
neurOptimRevLearn_low_s001,1,0.59265619982034,101,1,0,1,2,t2,0.5
neurOptimRevLearn_low_s001,1,0.734754400094971,102,1,0,1,0,t0,0.5
neurOptimRevLearn_low_s001,1,0.885620499961078,102,1,0,1,1,t1,0.5
neurOptimRevLearn_low_s001,1,0.813347400166094,102,0,1,1,2,t2,0.5
neurOptimRevLearn_low_s001,1,1.39498819992878,103,1,0,1,0,t0,0.5
neurOptimRevLearn_low_s001,1,0.720384800806642,103,0,1,1,1,t1,0.5
neurOptimRevLearn_low_s001,1,1.00402749981731,103,1,0,1,2,t2,0.5
neurOptimRevLearn_low_s001,1,0.561060499865562,104,1,0,1,0,t0,0.5
neurOptimRevLearn_low_s001,1,0.852736199274659,104,1,0,1,1,t1,0.5
neurOptimRevLearn_low_s001,1,0.974971800111234,104,0,1,1,2,t2,0.5
neurOptimRevLearn_low_s001,1,0.585003599990159,105,1,0,1,0,t0,0.5
neurOptimRevLearn_low_s001,1,1.44609929993749,105,1,0,1,1,t1,0.5
neurOptimRevLearn_low_s001,1,0.586988399736583,105,0,1,1,2,t2,0.5
neurOptimRevLearn_low_s001,1,0.537815799936652,106,1,0,1,0,t0,0.5
neurOptimRevLearn_low_s001,1,1.13781059999019,106,1,0,1,1,t1,0.5
neurOptimRevLearn_low_s001,1,0.634834999684244,106,0,1,1,2,t2,0.5
neurOptimRevLearn_low_s001,1,0.61226120009087,107,1,0,1,0,t0,0.5
neurOptimRevLearn_low_s001,1,1.60127280000597,107,1,0,1,1,t1,0.5
neurOptimRevLearn_low_s001,1,1.45004530018196,107,0,1,1,2,t2,0.5
neurOptimRevLearn_low_s001,1,0.541296899784356,108,1,0,1,0,t0,0.5
neurOptimRevLearn_low_s001,1,0.68257649987936,108,0,1,1,1,t1,0.5
neurOptimRevLearn_low_s001,1,0.245550699997693,108,0,1,1,2,t2,0.5
neurOptimRevLearn_low_s001,1,0.66556639992632,109,1,0,1,0,t0,0.5
neurOptimRevLearn_low_s001,1,0.774547999724746,109,1,1,1,1,t1,0.5
neurOptimRevLearn_low_s001,1,0.46414150018245,109,1,0,1,2,t2,0.5
neurOptimRevLearn_low_s001,1,0.677467300090939,110,0,0,1,0,t0,0.5
neurOptimRevLearn_low_s001,1,0.792917699553073,110,0,1,1,1,t1,0.5
neurOptimRevLearn_low_s001,1,0.816289899870753,110,1,0,1,2,t2,0.5
neurOptimRevLearn_low_s001,1,0.559866900090128,111,1,0,1,0,t0,0.5
neurOptimRevLearn_low_s001,1,0.844914799556136,111,0,1,1,1,t1,0.5
neurOptimRevLearn_low_s001,1,2.49885850027204,111,1,0,1,2,t2,0.5
neurOptimRevLearn_low_s001,1,0.514385499991477,112,1,0,1,0,t0,0.5
neurOptimRevLearn_low_s001,1,0.777984800748527,112,0,1,1,1,t1,0.5
neurOptimRevLearn_low_s001,1,1.54706460004672,112,1,0,1,2,t2,0.5
neurOptimRevLearn_low_s001,1,0.62728749983944,113,1,0,1,0,t0,0.5
neurOptimRevLearn_low_s001,1,1.50607329979539,113,0,1,1,1,t1,0.5
neurOptimRevLearn_low_s001,1,1.15368890017271,113,1,0,1,2,t2,0.5
neurOptimRevLearn_low_s001,1,0.677480800077319,114,1,0,1,0,t0,0.5
neurOptimRevLearn_low_s001,1,1.51408629957587,114,0,1,1,1,t1,0.5
neurOptimRevLearn_low_s001,1,0.899677000008524,114,1,1,1,2,t2,0.5
neurOptimRevLearn_low_s001,1,0.726981800049543,115,1,0,1,0,t0,0.5
neurOptimRevLearn_low_s001,1,1.67246920056641,115,1,0,1,1,t1,0.5
neurOptimRevLearn_low_s001,1,1.41526310006157,115,1,0,1,2,t2,0.5
neurOptimRevLearn_low_s001,1,0.514070600038394,116,1,0,1,0,t0,0.5
neurOptimRevLearn_low_s001,1,1.78579199966043,116,1,0,1,1,t1,0.5
neurOptimRevLearn_low_s001,1,1.57143440004438,116,0,1,1,2,t2,0.5
neurOptimRevLearn_low_s001,1,0.769415100105107,117,1,0,1,0,t0,0.5
neurOptimRevLearn_low_s001,1,1.19922519940883,117,1,0,1,1,t1,0.5
neurOptimRevLearn_low_s001,1,0.722188699990511,117,1,0,1,2,t2,0.5
neurOptimRevLearn_low_s001,1,0.629542199894786,118,1,0,1,0,t0,0.5
neurOptimRevLearn_low_s001,1,1.03825789969414,118,1,0,1,1,t1,0.5
neurOptimRevLearn_low_s001,1,1.7443436998874,118,0,0,1,2,t2,0.5
neurOptimRevLearn_low_s001,1,0.584627300035209,119,1,0,1,0,t0,0.5
neurOptimRevLearn_low_s001,1,2.16004080045968,119,0,1,1,1,t1,0.5
neurOptimRevLearn_low_s001,1,1.1963252001442,119,1,0,1,2,t2,0.5
neurOptimRevLearn_low_s001,1,0.633764799917117,120,1,0,1,0,t0,0.5
neurOptimRevLearn_low_s001,1,1.56727739982307,120,0,1,1,1,t1,0.5
neurOptimRevLearn_low_s001,1,2.82882309984416,120,1,0,1,2,t2,0.5
neurOptimRevLearn_low_s001,1,0.642929800087586,121,0,0,1,0,t0,0.5
neurOptimRevLearn_low_s001,1,1.52685709949583,121,0,0,1,1,t1,0.5
neurOptimRevLearn_low_s001,1,1.00626989966258,121,0,0,1,2,t2,0.5
neurOptimRevLearn_low_s001,1,0.643489399924874,122,1,1,1,0,t0,0.5
neurOptimRevLearn_low_s001,1,0.876571400091052,122,1,1,1,1,t1,0.5
neurOptimRevLearn_low_s001,1,0.709028800018132,122,1,1,1,2,t2,0.5
neurOptimRevLearn_low_s001,1,0.823417200008407,123,0,0,1,0,t0,0.5
neurOptimRevLearn_low_s001,1,1.05852869991213,123,1,1,1,1,t1,0.5
neurOptimRevLearn_low_s001,1,4.96069619990885,123,1,0,1,2,t2,0.5
neurOptimRevLearn_low_s001,1,0.672931900015101,124,1,1,1,0,t0,0.5
neurOptimRevLearn_low_s001,1,1.03922449983656,124,1,1,1,1,t1,0.5
neurOptimRevLearn_low_s001,1,3.23960400000215,124,1,1,1,2,t2,0.5
neurOptimRevLearn_low_s001,1,0.581954200053588,125,1,1,1,0,t0,0.5
neurOptimRevLearn_low_s001,1,0.857189099304378,125,1,1,1,1,t1,0.5
neurOptimRevLearn_low_s001,1,1.33816879987717,125,1,1,1,2,t2,0.5
neurOptimRevLearn_low_s001,1,1.30925299995579,126,1,1,1,0,t0,0.5
neurOptimRevLearn_low_s001,1,1.17813939973712,126,1,1,1,1,t1,0.5
neurOptimRevLearn_low_s001,1,1.4257288002409,126,0,0,1,2,t2,0.5
neurOptimRevLearn_low_s001,1,0.494496600003913,127,1,1,1,0,t0,0.5
neurOptimRevLearn_low_s001,1,0.782122099772096,127,1,1,1,1,t1,0.5
neurOptimRevLearn_low_s001,1,0.663790999911726,127,0,1,1,2,t2,0.5
neurOptimRevLearn_low_s001,1,0.502132400171831,128,1,1,1,0,t0,0.5
neurOptimRevLearn_low_s001,1,0.804727699607611,128,0,1,1,1,t1,0.5
neurOptimRevLearn_low_s001,1,1.11830099998042,128,1,1,1,2,t2,0.5
neurOptimRevLearn_low_s001,1,1.83920580008999,129,0,1,1,0,t0,0.5
neurOptimRevLearn_low_s001,1,1.07669370062649,129,0,1,1,1,t1,0.5
neurOptimRevLearn_low_s001,1,1.60591150028631,129,0,0,1,2,t2,0.5
neurOptimRevLearn_low_s001,1,0.459436200093478,130,1,0,1,0,t0,0.5
neurOptimRevLearn_low_s001,1,0.987988700158894,130,1,1,1,1,t1,0.5
neurOptimRevLearn_low_s001,1,0.750749400351197,130,0,0,1,2,t2,0.5
neurOptimRevLearn_low_s001,1,0.538176900008693,131,0,0,1,0,t0,0.5
neurOptimRevLearn_low_s001,1,0.916112400591373,131,1,1,1,1,t1,0.5
neurOptimRevLearn_low_s001,1,0.995366800110787,131,0,0,1,2,t2,0.5
neurOptimRevLearn_low_s001,1,0.778829699847847,132,1,1,1,0,t0,0.5
neurOptimRevLearn_low_s001,1,0.88858800008893,132,1,1,1,1,t1,0.5
neurOptimRevLearn_low_s001,1,1.45459769992158,132,0,0,1,2,t2,0.5
neurOptimRevLearn_low_s001,1,1.18899989989586,133,0,0,1,0,t0,0.5
neurOptimRevLearn_low_s001,1,1.3362308004871,133,1,1,1,1,t1,0.5
neurOptimRevLearn_low_s001,1,1.23780020000413,133,0,0,1,2,t2,0.5
neurOptimRevLearn_low_s001,1,0.543650500010699,134,1,1,1,0,t0,0.5
neurOptimRevLearn_low_s001,1,0.839327699504793,134,1,1,1,1,t1,0.5
neurOptimRevLearn_low_s001,1,1.60934900026768,134,1,1,1,2,t2,0.5
neurOptimRevLearn_low_s001,1,1.17013809992932,135,0,0,1,0,t0,0.5
neurOptimRevLearn_low_s001,1,0.952823899686337,135,1,1,1,1,t1,0.5
neurOptimRevLearn_low_s001,1,1.20375230023637,135,0,0,1,2,t2,0.5
neurOptimRevLearn_low_s001,1,0.443429100094363,136,1,1,1,0,t0,0.5
neurOptimRevLearn_low_s001,1,0.993442999199033,136,1,1,1,1,t1,0.5
neurOptimRevLearn_low_s001,1,1.48708069976419,136,1,1,1,2,t2,0.5
neurOptimRevLearn_low_s001,1,0.605669399956241,137,1,1,1,0,t0,0.5
neurOptimRevLearn_low_s001,1,1.0655951006338,137,1,1,1,1,t1,0.5
neurOptimRevLearn_low_s001,1,2.36912529962137,137,1,1,1,2,t2,0.5
neurOptimRevLearn_low_s001,1,1.85073640011251,138,0,0,1,0,t0,0.5
neurOptimRevLearn_low_s001,1,1.09925100021064,138,1,1,1,1,t1,0.5
neurOptimRevLearn_low_s001,1,0.761515200138092,138,1,1,1,2,t2,0.5
neurOptimRevLearn_low_s001,1,0.478045299882069,139,1,1,1,0,t0,0.5
neurOptimRevLearn_low_s001,1,1.31217580009252,139,1,1,1,1,t1,0.5
neurOptimRevLearn_low_s001,1,1.23593850014731,139,1,1,1,2,t2,0.5
neurOptimRevLearn_low_s001,1,0.453200600109994,140,1,1,1,0,t0,0.5
neurOptimRevLearn_low_s001,1,0.849874900653958,140,0,1,1,1,t1,0.5
neurOptimRevLearn_low_s001,1,0.702424400020391,140,1,1,1,2,t2,0.5
neurOptimRevLearn_low_s001,1,0.569251500070095,141,0,1,1,0,t0,0.5
neurOptimRevLearn_low_s001,1,0.708971300162375,141,1,1,1,1,t1,0.5
neurOptimRevLearn_low_s001,1,0.685589199885726,141,1,1,1,2,t2,0.5
neurOptimRevLearn_low_s001,1,0.428749699844047,142,0,0,1,0,t0,0.5
neurOptimRevLearn_low_s001,1,1.41138090007007,142,1,1,1,1,t1,0.5
neurOptimRevLearn_low_s001,1,0.231007600203156,142,1,1,1,2,t2,0.5
neurOptimRevLearn_low_s001,1,0.626309299841523,143,1,1,1,0,t0,0.5
neurOptimRevLearn_low_s001,1,0.842788000591099,143,1,1,1,1,t1,0.5
neurOptimRevLearn_low_s001,1,0.653688099700958,143,1,1,1,2,t2,0.5
neurOptimRevLearn_low_s001,1,0.599694200092927,144,1,1,1,0,t0,0.5
neurOptimRevLearn_low_s001,1,0.940441000275314,144,1,1,1,1,t1,0.5
neurOptimRevLearn_low_s001,1,0.541847500018776,144,0,0,1,2,t2,0.5
neurOptimRevLearn_low_s001,1,1.13499389984645,145,0,0,1,0,t0,0.5
neurOptimRevLearn_low_s001,1,0.98104599956423,145,1,1,1,1,t1,0.5
neurOptimRevLearn_low_s001,1,0.202491099946201,145,1,1,1,2,t2,0.5
neurOptimRevLearn_low_s001,1,0.494478599866852,146,1,1,1,0,t0,0.5
neurOptimRevLearn_low_s001,1,1.3987183002755,146,1,1,1,1,t1,0.5
neurOptimRevLearn_low_s001,1,0.239645100198686,146,1,0,1,2,t2,0.5
neurOptimRevLearn_low_s001,1,0.451280599925667,147,1,1,1,0,t0,0.5
neurOptimRevLearn_low_s001,1,0.859637999907136,147,1,1,1,1,t1,0.5
neurOptimRevLearn_low_s001,1,0.541054900269955,147,1,1,1,2,t2,0.5
neurOptimRevLearn_low_s001,1,1.36331939999945,148,0,0,1,0,t0,0.5
neurOptimRevLearn_low_s001,1,1.01211840007454,148,1,1,1,1,t1,0.5
neurOptimRevLearn_low_s001,1,0.588365499861538,148,1,1,1,2,t2,0.5
neurOptimRevLearn_low_s001,1,1.8803149999585,149,1,1,1,0,t0,0.5
neurOptimRevLearn_low_s001,1,1.08850229997188,149,1,1,1,1,t1,0.5
neurOptimRevLearn_low_s001,1,0.368877599947155,149,1,1,1,2,t2,0.5
neurOptimRevLearn_low_s001,1,0.500848400173709,150,1,1,1,0,t0,0.5
neurOptimRevLearn_low_s001,1,1.02674630004913,150,1,1,1,1,t1,0.5
neurOptimRevLearn_low_s001,1,0.243172899819911,150,1,1,1,2,t2,0.5
neurOptimRevLearn_low_s001,1,0.493805299978703,151,1,1,1,0,t0,0.5
neurOptimRevLearn_low_s001,1,0.280686000362039,151,1,1,1,1,t1,0.5
neurOptimRevLearn_low_s001,1,0.519903900101781,151,1,1,1,2,t2,0.5
neurOptimRevLearn_low_s001,1,0.605769800022245,152,1,1,1,0,t0,0.5
neurOptimRevLearn_low_s001,1,1.40161889977753,152,0,1,1,1,t1,0.5
neurOptimRevLearn_low_s001,1,0.519903900101781,152,1,0,1,2,t2,0.5
neurOptimRevLearn_low_s001,1,0.827660799957812,153,0,1,1,0,t0,0.5
neurOptimRevLearn_low_s001,1,1.23670949973166,153,0,1,1,1,t1,0.5
neurOptimRevLearn_low_s001,1,0.72985649947077,153,0,0,1,2,t2,0.5
neurOptimRevLearn_low_s001,1,0.949929399881512,154,0,1,1,0,t0,0.5
neurOptimRevLearn_low_s001,1,0.912984999828041,154,0,1,1,1,t1,0.5
neurOptimRevLearn_low_s001,1,0.915996799711138,154,0,0,1,2,t2,0.5
neurOptimRevLearn_low_s001,1,0.539062399882823,155,1,0,1,0,t0,0.5
neurOptimRevLearn_low_s001,1,1.09157199971378,155,1,1,1,1,t1,0.5
neurOptimRevLearn_low_s001,1,0.313811199739575,155,0,0,1,2,t2,0.5
neurOptimRevLearn_low_s001,1,0.693983899895102,156,0,0,1,0,t0,0.5
neurOptimRevLearn_low_s001,1,0.89651960041374,156,1,1,1,1,t1,0.5
neurOptimRevLearn_low_s001,1,1.20601369999349,156,0,0,1,2,t2,0.5
neurOptimRevLearn_low_s001,1,0.818458199966699,157,0,0,1,0,t0,0.5
neurOptimRevLearn_low_s001,1,1.19313719961792,157,1,1,1,1,t1,0.5
neurOptimRevLearn_low_s001,1,0.715680900029838,157,1,1,1,2,t2,0.5
neurOptimRevLearn_low_s001,1,0.522115299943835,158,1,1,1,0,t0,0.5
neurOptimRevLearn_low_s001,1,0.630080500617623,158,1,1,1,1,t1,0.5
neurOptimRevLearn_low_s001,1,0.452766600064933,158,0,0,1,2,t2,0.5
neurOptimRevLearn_low_s001,1,1.45911479997449,159,1,1,1,0,t0,0.5
neurOptimRevLearn_low_s001,1,1.15365310013294,159,1,1,1,1,t1,0.5
neurOptimRevLearn_low_s001,1,0.915467200335115,159,0,0,1,2,t2,0.5
neurOptimRevLearn_low_s001,1,0.785310599952936,160,1,1,1,0,t0,0.5
neurOptimRevLearn_low_s001,1,0.881596799939871,160,1,1,1,1,t1,0.5
neurOptimRevLearn_low_s001,1,0.79723190004006,160,0,0,1,2,t2,0.5
neurOptimRevLearn_low_s001,1,0.796051200013608,161,1,0,1,0,t0,0.5
neurOptimRevLearn_low_s001,1,4.63892420008779,161,1,0,1,1,t1,0.5
neurOptimRevLearn_low_s001,1,2.32048370037228,161,1,0,1,2,t2,0.5
neurOptimRevLearn_low_s001,1,0.533256600145251,162,1,0,1,0,t0,0.5
neurOptimRevLearn_low_s001,1,4.92913889978081,162,1,0,1,1,t1,0.5
neurOptimRevLearn_low_s001,1,1.38010569987819,162,1,0,1,2,t2,0.5
neurOptimRevLearn_low_s001,1,1.45389880007133,163,0,1,1,0,t0,0.5
neurOptimRevLearn_low_s001,1,4.80991609953344,163,1,0,1,1,t1,0.5
neurOptimRevLearn_low_s001,1,2.22919220011681,163,0,1,1,2,t2,0.5
neurOptimRevLearn_low_s001,1,0.96148409997113,164,1,0,1,0,t0,0.5
neurOptimRevLearn_low_s001,1,3.18098299950361,164,1,0,1,1,t1,0.5
neurOptimRevLearn_low_s001,1,2.78929599979892,164,1,0,1,2,t2,0.5
neurOptimRevLearn_low_s001,1,0.87894230009988,165,1,0,1,0,t0,0.5
neurOptimRevLearn_low_s001,1,3.21618309989572,165,1,0,1,1,t1,0.5
neurOptimRevLearn_low_s001,1,0.942171200178564,165,1,0,1,2,t2,0.5
neurOptimRevLearn_low_s001,1,0.775721000041813,166,1,0,1,0,t0,0.5
neurOptimRevLearn_low_s001,1,4.64598460029811,166,1,0,1,1,t1,0.5
neurOptimRevLearn_low_s001,1,0.953891200013459,166,1,0,1,2,t2,0.5
neurOptimRevLearn_low_s001,1,0.765927499858663,167,1,0,1,0,t0,0.5
neurOptimRevLearn_low_s001,1,2.21009339950979,167,1,0,1,1,t1,0.5
neurOptimRevLearn_low_s001,1,0.858703599777073,167,1,0,1,2,t2,0.5
neurOptimRevLearn_low_s001,1,2.23268739995547,168,0,1,1,0,t0,0.5
neurOptimRevLearn_low_s001,1,2.14739140029997,168,1,0,1,1,t1,0.5
neurOptimRevLearn_low_s001,1,2.30258980020881,168,1,0,1,2,t2,0.5
neurOptimRevLearn_low_s001,1,1.40057070017792,169,0,1,1,0,t0,0.5
neurOptimRevLearn_low_s001,1,1.63032929971814,169,1,0,1,1,t1,0.5
neurOptimRevLearn_low_s001,1,1.00418009981513,169,1,0,1,2,t2,0.5
neurOptimRevLearn_low_s001,1,0.709912500111386,170,1,0,1,0,t0,0.5
neurOptimRevLearn_low_s001,1,1.56601989921182,170,1,0,1,1,t1,0.5
neurOptimRevLearn_low_s001,1,1.11522930022329,170,1,0,1,2,t2,0.5
neurOptimRevLearn_low_s001,1,0.507697799941525,171,1,0,1,0,t0,0.5
neurOptimRevLearn_low_s001,1,2.20777769945562,171,1,0,1,1,t1,0.5
neurOptimRevLearn_low_s001,1,0.88864910043776,171,1,0,1,2,t2,0.5
neurOptimRevLearn_low_s001,1,0.967757199890912,172,1,1,1,0,t0,0.5
neurOptimRevLearn_low_s001,1,2.06134049966931,172,0,0,1,1,t1,0.5
neurOptimRevLearn_low_s001,1,0.819213399663568,172,0,0,1,2,t2,0.5
neurOptimRevLearn_low_s001,1,0.665901799919084,173,1,0,1,0,t0,0.5
neurOptimRevLearn_low_s001,1,3.304118799977,173,1,0,1,1,t1,0.5
neurOptimRevLearn_low_s001,1,1.47484650043771,173,1,0,1,2,t2,0.5
neurOptimRevLearn_low_s001,1,0.665053599979729,174,1,0,1,0,t0,0.5
neurOptimRevLearn_low_s001,1,2.33441590052098,174,1,0,1,1,t1,0.5
neurOptimRevLearn_low_s001,1,1.40350670041516,174,1,0,1,2,t2,0.5
neurOptimRevLearn_low_s001,1,1.22348669986241,175,0,1,1,0,t0,0.5
neurOptimRevLearn_low_s001,1,3.52447400055826,175,0,1,1,1,t1,0.5
neurOptimRevLearn_low_s001,1,0.782844699919224,175,0,1,1,2,t2,0.5
neurOptimRevLearn_low_s001,1,0.700972200138494,176,1,0,1,0,t0,0.5
neurOptimRevLearn_low_s001,1,2.12741439975798,176,1,0,1,1,t1,0.5
neurOptimRevLearn_low_s001,1,0.526688799727708,176,1,0,1,2,t2,0.5
neurOptimRevLearn_low_s001,1,0.821040199836716,177,1,0,1,0,t0,0.5
neurOptimRevLearn_low_s001,1,2.79148690029979,177,1,0,1,1,t1,0.5
neurOptimRevLearn_low_s001,1,2.47742230026051,177,0,1,1,2,t2,0.5
neurOptimRevLearn_low_s001,1,0.697187299840152,178,1,0,1,0,t0,0.5
neurOptimRevLearn_low_s001,1,1.29326190054417,178,1,0,1,1,t1,0.5
neurOptimRevLearn_low_s001,1,0.793951299972832,178,0,1,1,2,t2,0.5
neurOptimRevLearn_low_s001,1,0.597625199938193,179,0,0,1,0,t0,0.5
neurOptimRevLearn_low_s001,1,1.40114089939743,179,0,0,1,1,t1,0.5
neurOptimRevLearn_low_s001,1,0.850638799834997,179,1,1,1,2,t2,0.5
neurOptimRevLearn_low_s001,1,1.01177540002391,180,0,0,1,0,t0,0.5
neurOptimRevLearn_low_s001,1,1.53116030059755,180,0,0,1,1,t1,0.5
neurOptimRevLearn_low_s001,1,0.82458409992978,180,0,0,1,2,t2,0.5
neurOptimRevLearn_low_s001,1,0.602586799999699,181,1,0,1,0,t0,0.5
neurOptimRevLearn_low_s001,1,4.89253280032426,181,0,1,1,1,t1,0.5
neurOptimRevLearn_low_s001,1,1.01970870001242,181,1,0,1,2,t2,0.5
neurOptimRevLearn_low_s001,1,0.825806300155819,182,1,0,1,0,t0,0.5
neurOptimRevLearn_low_s001,1,1.96105749998242,182,1,0,1,1,t1,0.5
neurOptimRevLearn_low_s001,1,1.32489179959521,182,1,0,1,2,t2,0.5
neurOptimRevLearn_low_s001,1,1.17888129991479,183,1,0,1,0,t0,0.5
neurOptimRevLearn_low_s001,1,3.97830429952592,183,1,0,1,1,t1,0.5
neurOptimRevLearn_low_s001,1,2.40167250018567,183,1,0,1,2,t2,0.5
neurOptimRevLearn_low_s001,1,0.626284600002691,184,1,0,1,0,t0,0.5
neurOptimRevLearn_low_s001,1,2.14736500009894,184,1,0,1,1,t1,0.5
neurOptimRevLearn_low_s001,1,1.31703330017626,184,1,0,1,2,t2,0.5
neurOptimRevLearn_low_s001,1,0.8126475000754,185,1,0,1,0,t0,0.5
neurOptimRevLearn_low_s001,1,1.99076130054891,185,1,0,1,1,t1,0.5
neurOptimRevLearn_low_s001,1,1.20257720025256,185,1,0,1,2,t2,0.5
neurOptimRevLearn_low_s001,1,0.771445499965921,186,0,0,1,0,t0,0.5
neurOptimRevLearn_low_s001,1,1.9323305003345,186,0,0,1,1,t1,0.5
neurOptimRevLearn_low_s001,1,0.92701099999249,186,0,0,1,2,t2,0.5
neurOptimRevLearn_low_s001,1,1.35690220003016,187,0,1,1,0,t0,0.5
neurOptimRevLearn_low_s001,1,1.61278080008924,187,1,0,1,1,t1,0.5
neurOptimRevLearn_low_s001,1,0.663966299965978,187,1,0,1,2,t2,0.5
neurOptimRevLearn_low_s001,1,0.798576800152659,188,0,0,1,0,t0,0.5
neurOptimRevLearn_low_s001,1,1.37009110022336,188,0,0,1,1,t1,0.5
neurOptimRevLearn_low_s001,1,0.896069600246847,188,0,0,1,2,t2,0.5
neurOptimRevLearn_low_s001,1,0.882953299907967,189,1,0,1,0,t0,0.5
neurOptimRevLearn_low_s001,1,2.24699029978365,189,0,1,1,1,t1,0.5
neurOptimRevLearn_low_s001,1,0.989139399956912,189,1,0,1,2,t2,0.5
neurOptimRevLearn_low_s001,1,0.697551099816337,190,1,0,1,0,t0,0.5
neurOptimRevLearn_low_s001,1,1.99906929954886,190,1,0,1,1,t1,0.5
neurOptimRevLearn_low_s001,1,0.595730700064451,190,1,0,1,2,t2,0.5
neurOptimRevLearn_low_s001,1,0.780813900055364,191,0,1,1,0,t0,0.5
neurOptimRevLearn_low_s001,1,1.59126689936966,191,1,0,1,1,t1,0.5
neurOptimRevLearn_low_s001,1,0.856018800288439,191,1,0,1,2,t2,0.5
neurOptimRevLearn_low_s001,1,0.753834299976006,192,1,0,1,0,t0,0.5
neurOptimRevLearn_low_s001,1,1.28457880020142,192,1,0,1,1,t1,0.5
neurOptimRevLearn_low_s001,1,1.13602229999378,192,1,0,1,2,t2,0.5
neurOptimRevLearn_low_s001,1,1.13041210011579,193,1,0,1,0,t0,0.5
neurOptimRevLearn_low_s001,1,1.2338518993929,193,1,0,1,1,t1,0.5
neurOptimRevLearn_low_s001,1,0.943950599990785,193,1,0,1,2,t2,0.5
neurOptimRevLearn_low_s001,1,0.608774700202048,194,1,0,1,0,t0,0.5
neurOptimRevLearn_low_s001,1,1.25792669970542,194,1,0,1,1,t1,0.5
neurOptimRevLearn_low_s001,1,1.87215470010415,194,1,0,1,2,t2,0.5
neurOptimRevLearn_low_s001,1,0.531963800080121,195,1,0,1,0,t0,0.5
neurOptimRevLearn_low_s001,1,1.36330590024591,195,1,0,1,1,t1,0.5
neurOptimRevLearn_low_s001,1,1.67985620023683,195,1,0,1,2,t2,0.5
neurOptimRevLearn_low_s001,1,0.617007799912244,196,1,0,1,0,t0,0.5
neurOptimRevLearn_low_s001,1,1.21879100054502,196,1,0,1,1,t1,0.5
neurOptimRevLearn_low_s001,1,1.11875539971516,196,1,0,1,2,t2,0.5
neurOptimRevLearn_low_s001,1,0.518592099891976,197,0,0,1,0,t0,0.5
neurOptimRevLearn_low_s001,1,1.15918270032853,197,0,0,1,1,t1,0.5
neurOptimRevLearn_low_s001,1,1.43380209989846,197,0,0,1,2,t2,0.5
neurOptimRevLearn_low_s001,1,0.590029199840501,198,0,1,1,0,t0,0.5
neurOptimRevLearn_low_s001,1,1.42739810049534,198,1,0,1,1,t1,0.5
neurOptimRevLearn_low_s001,1,1.87595839984715,198,0,1,1,2,t2,0.5
neurOptimRevLearn_low_s001,1,1.1037071000319,199,1,0,1,0,t0,0.5
neurOptimRevLearn_low_s001,1,1.29585529956967,199,1,0,1,1,t1,0.5
neurOptimRevLearn_low_s001,1,1.38874119985849,199,1,0,1,2,t2,0.5
neurOptimRevLearn_low_s001,1,0.507831000024453,200,1,0,1,0,t0,0.5
neurOptimRevLearn_low_s001,1,1.03390569984913,200,1,0,1,1,t1,0.5
neurOptimRevLearn_low_s001,1,0.671198400203139,200,1,0,1,2,t2,0.5
neurOptimRevLearn_low_s001,1,0.795697499997914,201,0,0,1,0,t0,0.5
neurOptimRevLearn_low_s001,1,1.39131310023367,201,0,0,1,1,t1,0.5
neurOptimRevLearn_low_s001,1,1.43699420010671,201,0,0,1,2,t2,0.5
neurOptimRevLearn_low_s001,1,0.577392200008035,202,1,1,1,0,t0,0.5
neurOptimRevLearn_low_s001,1,1.04948049969971,202,0,0,1,1,t1,0.5
neurOptimRevLearn_low_s001,1,1.3765177000314,202,1,1,1,2,t2,0.5
neurOptimRevLearn_low_s001,1,0.479988300008699,203,1,1,1,0,t0,0.5
neurOptimRevLearn_low_s001,1,1.23989729955792,203,0,0,1,1,t1,0.5
neurOptimRevLearn_low_s001,1,1.16235349979252,203,1,1,1,2,t2,0.5
neurOptimRevLearn_low_s001,1,0.506344699999318,204,1,1,1,0,t0,0.5
neurOptimRevLearn_low_s001,1,1.31049370020628,204,0,0,1,1,t1,0.5
neurOptimRevLearn_low_s001,1,0.881429799832404,204,1,1,1,2,t2,0.5
neurOptimRevLearn_low_s001,1,0.469887599814683,205,1,1,1,0,t0,0.5
neurOptimRevLearn_low_s001,1,1.4599517993629,205,1,1,1,1,t1,0.5
neurOptimRevLearn_low_s001,1,1.01838020002469,205,1,1,1,2,t2,0.5
neurOptimRevLearn_low_s001,1,0.922708499943838,206,1,1,1,0,t0,0.5
neurOptimRevLearn_low_s001,1,1.55510220024735,206,0,0,1,1,t1,0.5
neurOptimRevLearn_low_s001,1,1.07263639988378,206,1,1,1,2,t2,0.5
neurOptimRevLearn_low_s001,1,0.655015599913895,207,1,1,1,0,t0,0.5
neurOptimRevLearn_low_s001,1,1.58043169975281,207,1,1,1,1,t1,0.5
neurOptimRevLearn_low_s001,1,0.925787599757314,207,1,1,1,2,t2,0.5
neurOptimRevLearn_low_s001,1,0.643604899989441,208,1,1,1,0,t0,0.5
neurOptimRevLearn_low_s001,1,2.38870500028133,208,1,1,1,1,t1,0.5
neurOptimRevLearn_low_s001,1,0.904030799865723,208,0,0,1,2,t2,0.5
neurOptimRevLearn_low_s001,1,0.432705899933353,209,1,1,1,0,t0,0.5
neurOptimRevLearn_low_s001,1,1.69795510079712,209,1,1,1,1,t1,0.5
neurOptimRevLearn_low_s001,1,1.08094099955633,209,1,1,1,2,t2,0.5
neurOptimRevLearn_low_s001,1,0.703002199996263,210,1,1,1,0,t0,0.5
neurOptimRevLearn_low_s001,1,1.29278420004994,210,1,1,1,1,t1,0.5
neurOptimRevLearn_low_s001,1,0.855313599575311,210,1,1,1,2,t2,0.5
neurOptimRevLearn_low_s001,1,0.690736399963498,211,1,1,1,0,t0,0.5
neurOptimRevLearn_low_s001,1,1.48587489966303,211,1,1,1,1,t1,0.5
neurOptimRevLearn_low_s001,1,0.547916299663484,211,1,1,1,2,t2,0.5
neurOptimRevLearn_low_s001,1,0.669377500191331,212,1,1,1,0,t0,0.5
neurOptimRevLearn_low_s001,1,2.59107189998031,212,1,1,1,1,t1,0.5
neurOptimRevLearn_low_s001,1,0.733214700128883,212,1,1,1,2,t2,0.5
neurOptimRevLearn_low_s001,1,0.522332299966365,213,1,1,1,0,t0,0.5
neurOptimRevLearn_low_s001,1,2.34842959977686,213,1,1,1,1,t1,0.5
neurOptimRevLearn_low_s001,1,0.437709799967706,213,1,1,1,2,t2,0.5
neurOptimRevLearn_low_s001,1,0.73839610000141,214,1,1,1,0,t0,0.5
neurOptimRevLearn_low_s001,1,1.61000810004771,214,1,1,1,1,t1,0.5
neurOptimRevLearn_low_s001,1,1.23913649981841,214,1,1,1,2,t2,0.5
neurOptimRevLearn_low_s001,1,0.466881500091404,215,1,1,1,0,t0,0.5
neurOptimRevLearn_low_s001,1,1.33385689929128,215,1,1,1,1,t1,0.5
neurOptimRevLearn_low_s001,1,1.06734600011259,215,1,1,1,2,t2,0.5
neurOptimRevLearn_low_s001,1,0.686403399799019,216,1,1,1,0,t0,0.5
neurOptimRevLearn_low_s001,1,1.49462310038507,216,1,1,1,1,t1,0.5
neurOptimRevLearn_low_s001,1,0.81685659987852,216,1,1,1,2,t2,0.5
neurOptimRevLearn_low_s001,1,0.627099999925122,217,1,1,1,0,t0,0.5
neurOptimRevLearn_low_s001,1,1.60885179974139,217,1,1,1,1,t1,0.5
neurOptimRevLearn_low_s001,1,0.933932200074196,217,1,1,1,2,t2,0.5
neurOptimRevLearn_low_s001,1,0.523329900112003,218,1,1,1,0,t0,0.5
neurOptimRevLearn_low_s001,1,1.52025379985571,218,1,1,1,1,t1,0.5
neurOptimRevLearn_low_s001,1,1.00598570005968,218,1,1,1,2,t2,0.5
neurOptimRevLearn_low_s001,1,0.526961300056428,219,1,1,1,0,t0,0.5
neurOptimRevLearn_low_s001,1,1.40124110039324,219,1,1,1,1,t1,0.5
neurOptimRevLearn_low_s001,1,1.05478719994426,219,1,1,1,2,t2,0.5
neurOptimRevLearn_low_s001,1,0.47639529989101,220,1,1,1,0,t0,0.5
neurOptimRevLearn_low_s001,1,1.63285499997437,220,1,1,1,1,t1,0.5
neurOptimRevLearn_low_s001,1,1.84412169968709,220,1,1,1,2,t2,0.5
neurOptimRevLearn_low_s001,1,0.728803799953312,221,1,1,1,0,t0,0.5
neurOptimRevLearn_low_s001,1,1.3433751007542,221,1,1,1,1,t1,0.5
neurOptimRevLearn_low_s001,1,0.973325000144541,221,1,1,1,2,t2,0.5
neurOptimRevLearn_low_s001,1,0.463775800075382,222,1,1,1,0,t0,0.5
neurOptimRevLearn_low_s001,1,1.47345380019397,222,1,1,1,1,t1,0.5
neurOptimRevLearn_low_s001,1,0.940424199681729,222,1,1,1,2,t2,0.5
neurOptimRevLearn_low_s001,1,0.679830299923196,223,1,1,1,0,t0,0.5
neurOptimRevLearn_low_s001,1,2.02820490021259,223,1,1,1,1,t1,0.5
neurOptimRevLearn_low_s001,1,1.26897670002654,223,1,1,1,2,t2,0.5
neurOptimRevLearn_low_s001,1,0.62489979993552,224,1,1,1,0,t0,0.5
neurOptimRevLearn_low_s001,1,1.40957599971443,224,1,1,1,1,t1,0.5
neurOptimRevLearn_low_s001,1,0.961232699919492,224,1,1,1,2,t2,0.5
neurOptimRevLearn_low_s001,1,0.479656500043348,225,1,1,1,0,t0,0.5
neurOptimRevLearn_low_s001,1,1.40239069983363,225,1,1,1,1,t1,0.5
neurOptimRevLearn_low_s001,1,1.23806109977886,225,1,1,1,2,t2,0.5
neurOptimRevLearn_low_s001,1,0.61425460013561,226,1,1,1,0,t0,0.5
neurOptimRevLearn_low_s001,1,1.94225529953837,226,1,1,1,1,t1,0.5
neurOptimRevLearn_low_s001,1,0.979797100182623,226,1,1,1,2,t2,0.5
neurOptimRevLearn_low_s001,1,0.536790800048038,227,1,1,1,0,t0,0.5
neurOptimRevLearn_low_s001,1,1.29923560004681,227,1,1,1,1,t1,0.5
neurOptimRevLearn_low_s001,1,0.969442500267178,227,1,1,1,2,t2,0.5
neurOptimRevLearn_low_s001,1,0.556896599940956,228,1,1,1,0,t0,0.5
neurOptimRevLearn_low_s001,1,1.95125100016594,228,1,1,1,1,t1,0.5
neurOptimRevLearn_low_s001,1,0.945836200378835,228,1,1,1,2,t2,0.5
neurOptimRevLearn_low_s001,1,0.5348482998088,229,1,1,1,0,t0,0.5
neurOptimRevLearn_low_s001,1,1.27329069934785,229,1,1,1,1,t1,0.5
neurOptimRevLearn_low_s001,1,0.874122499953955,229,1,1,1,2,t2,0.5
neurOptimRevLearn_low_s001,1,0.587750500068069,230,1,1,1,0,t0,0.5
neurOptimRevLearn_low_s001,1,2.31186820007861,230,1,1,1,1,t1,0.5
neurOptimRevLearn_low_s001,1,1.13113180035725,230,1,1,1,2,t2,0.5
neurOptimRevLearn_low_s001,1,0.542257099878043,231,1,1,1,0,t0,0.5
neurOptimRevLearn_low_s001,1,1.08183730021119,231,1,1,1,1,t1,0.5
neurOptimRevLearn_low_s001,1,0.691667200066149,231,1,1,1,2,t2,0.5
neurOptimRevLearn_low_s001,1,0.454995499923825,232,1,1,1,0,t0,0.5
neurOptimRevLearn_low_s001,1,1.14203729946166,232,1,1,1,1,t1,0.5
neurOptimRevLearn_low_s001,1,0.632230900228024,232,1,1,1,2,t2,0.5
neurOptimRevLearn_low_s001,1,0.82973669981584,233,1,1,1,0,t0,0.5
neurOptimRevLearn_low_s001,1,1.5515154004097,233,1,1,1,1,t1,0.5
neurOptimRevLearn_low_s001,1,1.08634850010276,233,1,1,1,2,t2,0.5
neurOptimRevLearn_low_s001,1,0.691846099914983,234,0,1,1,0,t0,0.5
neurOptimRevLearn_low_s001,1,1.16660160012543,234,0,1,1,1,t1,0.5
neurOptimRevLearn_low_s001,1,0.749162100255489,234,0,1,1,2,t2,0.5
neurOptimRevLearn_low_s001,1,0.72559510008432,235,1,1,1,0,t0,0.5
neurOptimRevLearn_low_s001,1,1.0656687002629,235,1,1,1,1,t1,0.5
neurOptimRevLearn_low_s001,1,0.942909700330347,235,1,1,1,2,t2,0.5
neurOptimRevLearn_low_s001,1,0.563444999977946,236,0,0,1,0,t0,0.5
neurOptimRevLearn_low_s001,1,2.65489450003952,236,0,0,1,1,t1,0.5
neurOptimRevLearn_low_s001,1,0.730627600103617,236,1,1,1,2,t2,0.5
neurOptimRevLearn_low_s001,1,0.450025700032711,237,1,1,1,0,t0,0.5
neurOptimRevLearn_low_s001,1,1.2003795998171,237,1,1,1,1,t1,0.5
neurOptimRevLearn_low_s001,1,0.908749300055206,237,1,1,1,2,t2,0.5
neurOptimRevLearn_low_s001,1,0.543088899925351,238,1,1,1,0,t0,0.5
neurOptimRevLearn_low_s001,1,1.07895269989967,238,1,1,1,1,t1,0.5
neurOptimRevLearn_low_s001,1,0.741507700178772,238,1,1,1,2,t2,0.5
neurOptimRevLearn_low_s001,1,0.861963100032881,239,1,1,1,0,t0,0.5
neurOptimRevLearn_low_s001,1,1.24214170034975,239,1,1,1,1,t1,0.5
neurOptimRevLearn_low_s001,1,0.95026749977842,239,1,1,1,2,t2,0.5
neurOptimRevLearn_low_s001,1,0.67114740004763,240,0,1,1,0,t0,0.5
neurOptimRevLearn_low_s001,1,1.57939689978957,240,0,1,1,1,t1,0.5
neurOptimRevLearn_low_s001,1,1.00787300011143,240,0,1,1,2,t2,0.5
neurOptimRevLearn_low_s001,1,1.39850690006278,241,1,0,1,0,t0,0.5
neurOptimRevLearn_low_s001,1,2.83774099964649,241,0,1,1,1,t1,0.5
neurOptimRevLearn_low_s001,1,0.838044200092554,241,0,1,1,2,t2,0.5
neurOptimRevLearn_low_s001,1,0.60089879995212,242,1,0,1,0,t0,0.5
neurOptimRevLearn_low_s001,1,1.3907060995698,242,1,0,1,1,t1,0.5
neurOptimRevLearn_low_s001,1,1.15423540025949,242,1,0,1,2,t2,0.5
neurOptimRevLearn_low_s001,1,2.41566419997253,243,1,0,1,0,t0,0.5
neurOptimRevLearn_low_s001,1,1.38405869994313,243,1,0,1,1,t1,0.5
neurOptimRevLearn_low_s001,1,0.816096900030971,243,1,0,1,2,t2,0.5
neurOptimRevLearn_low_s001,1,0.690118400147185,244,1,0,1,0,t0,0.5
neurOptimRevLearn_low_s001,1,1.17325229942799,244,0,1,1,1,t1,0.5
neurOptimRevLearn_low_s001,1,1.71051699994132,244,0,1,1,2,t2,0.5
neurOptimRevLearn_low_s001,1,0.940352800069377,245,1,0,1,0,t0,0.5
neurOptimRevLearn_low_s001,1,1.37579850014299,245,0,1,1,1,t1,0.5
neurOptimRevLearn_low_s001,1,0.777532000094652,245,0,1,1,2,t2,0.5
neurOptimRevLearn_low_s001,1,0.64543589996174,246,0,1,1,0,t0,0.5
neurOptimRevLearn_low_s001,1,1.39588019996881,246,1,0,1,1,t1,0.5
neurOptimRevLearn_low_s001,1,0.845716500189155,246,1,0,1,2,t2,0.5
neurOptimRevLearn_low_s001,1,1.31774430000223,247,1,0,1,0,t0,0.5
neurOptimRevLearn_low_s001,1,1.90190469939262,247,0,1,1,1,t1,0.5
neurOptimRevLearn_low_s001,1,1.67015499994159,247,1,0,1,2,t2,0.5
neurOptimRevLearn_low_s001,1,0.754980099853128,248,1,0,1,0,t0,0.5
neurOptimRevLearn_low_s001,1,1.59307669941336,248,0,1,1,1,t1,0.5
neurOptimRevLearn_low_s001,1,0.691699199844152,248,1,0,1,2,t2,0.5
neurOptimRevLearn_low_s001,1,1.37207829998806,249,1,0,1,0,t0,0.5
neurOptimRevLearn_low_s001,1,1.66173470020294,249,0,1,1,1,t1,0.5
neurOptimRevLearn_low_s001,1,0.858645899686962,249,1,0,1,2,t2,0.5
neurOptimRevLearn_low_s001,1,0.740895699942485,250,1,0,1,0,t0,0.5
neurOptimRevLearn_low_s001,1,0.87784490082413,250,1,0,1,1,t1,0.5
neurOptimRevLearn_low_s001,1,0.989288299810141,250,1,0,1,2,t2,0.5
neurOptimRevLearn_low_s001,1,0.724297699984163,251,1,0,1,0,t0,0.5
neurOptimRevLearn_low_s001,1,1.71539620030671,251,0,1,1,1,t1,0.5
neurOptimRevLearn_low_s001,1,0.868171900045127,251,1,0,1,2,t2,0.5
neurOptimRevLearn_low_s001,1,0.775550300022587,252,1,0,1,0,t0,0.5
neurOptimRevLearn_low_s001,1,2.37344729993492,252,0,1,1,1,t1,0.5
neurOptimRevLearn_low_s001,1,0.803189199883491,252,1,0,1,2,t2,0.5
neurOptimRevLearn_low_s001,1,0.866060900036246,253,1,0,1,0,t0,0.5
neurOptimRevLearn_low_s001,1,1.46773639973253,253,0,1,1,1,t1,0.5
neurOptimRevLearn_low_s001,1,0.867340799886733,253,1,0,1,2,t2,0.5
neurOptimRevLearn_low_s001,1,0.75745390006341,254,0,0,1,0,t0,0.5
neurOptimRevLearn_low_s001,1,1.50739169958979,254,0,0,1,1,t1,0.5
neurOptimRevLearn_low_s001,1,0.78693290008232,254,0,0,1,2,t2,0.5
neurOptimRevLearn_low_s001,1,0.77144889999181,255,1,0,1,0,t0,0.5
neurOptimRevLearn_low_s001,1,1.60625139996409,255,0,1,1,1,t1,0.5
neurOptimRevLearn_low_s001,1,0.917071000207216,255,1,0,1,2,t2,0.5
neurOptimRevLearn_low_s001,1,1.01034480007365,256,1,0,1,0,t0,0.5
neurOptimRevLearn_low_s001,1,1.23172140028328,256,1,0,1,1,t1,0.5
neurOptimRevLearn_low_s001,1,0.936052900273353,256,1,0,1,2,t2,0.5
neurOptimRevLearn_low_s001,1,0.615699800197035,257,1,0,1,0,t0,0.5
neurOptimRevLearn_low_s001,1,1.08366859983653,257,1,0,1,1,t1,0.5
neurOptimRevLearn_low_s001,1,0.975111400242895,257,0,1,1,2,t2,0.5
neurOptimRevLearn_low_s001,1,0.538339299848303,258,1,0,1,0,t0,0.5
neurOptimRevLearn_low_s001,1,1.47060910053551,258,1,0,1,1,t1,0.5
neurOptimRevLearn_low_s001,1,0.904833400156349,258,1,0,1,2,t2,0.5
neurOptimRevLearn_low_s001,1,1.79906619992107,259,0,1,1,0,t0,0.5
neurOptimRevLearn_low_s001,1,1.17853999976069,259,0,1,1,1,t1,0.5
neurOptimRevLearn_low_s001,1,1.15738839982077,259,1,0,1,2,t2,0.5
neurOptimRevLearn_low_s001,1,1.18430380150676,260,0,0,1,0,t0,0.5
neurOptimRevLearn_low_s001,1,2.39553659968078,260,0,1,1,1,t1,0.5
neurOptimRevLearn_low_s001,1,0.960217399988323,260,1,0,1,2,t2,0.5
neurOptimRevLearn_low_s001,1,2.20411900011823,261,0,1,1,0,t0,0.5
neurOptimRevLearn_low_s001,1,2.34247659984976,261,1,0,1,1,t1,0.5
neurOptimRevLearn_low_s001,1,0.851568499580026,261,1,0,1,2,t2,0.5
neurOptimRevLearn_low_s001,1,2.70030090003274,262,0,1,1,0,t0,0.5
neurOptimRevLearn_low_s001,1,1.71470940019935,262,1,0,1,1,t1,0.5
neurOptimRevLearn_low_s001,1,0.912461999803782,262,1,0,1,2,t2,0.5
neurOptimRevLearn_low_s001,1,0.865648099919781,263,0,1,1,0,t0,0.5
neurOptimRevLearn_low_s001,1,1.11807699967176,263,1,0,1,1,t1,0.5
neurOptimRevLearn_low_s001,1,1.07237359974533,263,1,0,1,2,t2,0.5
neurOptimRevLearn_low_s001,1,0.861093499930576,264,0,1,1,0,t0,0.5
neurOptimRevLearn_low_s001,1,1.63881780020893,264,1,0,1,1,t1,0.5
neurOptimRevLearn_low_s001,1,0.780549400020391,264,1,0,1,2,t2,0.5
neurOptimRevLearn_low_s001,1,0.606076800031588,265,1,0,1,0,t0,0.5
neurOptimRevLearn_low_s001,1,0.943141999654472,265,1,0,1,1,t1,0.5
neurOptimRevLearn_low_s001,1,0.786485299933702,265,1,0,1,2,t2,0.5
neurOptimRevLearn_low_s001,1,2.26850899984129,266,0,1,1,0,t0,0.5
neurOptimRevLearn_low_s001,1,1.05358859989792,266,1,0,1,1,t1,0.5
neurOptimRevLearn_low_s001,1,0.811162299942225,266,1,0,1,2,t2,0.5
neurOptimRevLearn_low_s001,1,1.15771119995043,267,1,0,1,0,t0,0.5
neurOptimRevLearn_low_s001,1,2.62671979982406,267,0,1,1,1,t1,0.5
neurOptimRevLearn_low_s001,1,1.21524580009282,267,1,0,1,2,t2,0.5
neurOptimRevLearn_low_s001,1,0.639645799994469,268,1,0,1,0,t0,0.5
neurOptimRevLearn_low_s001,1,1.27991090063006,268,1,0,1,1,t1,0.5
neurOptimRevLearn_low_s001,1,1.02316859969869,268,1,0,1,2,t2,0.5
neurOptimRevLearn_low_s001,1,0.832550799939781,269,1,0,1,0,t0,0.5
neurOptimRevLearn_low_s001,1,1.60223829932511,269,1,0,1,1,t1,0.5
neurOptimRevLearn_low_s001,1,0.859127900097519,269,1,0,1,2,t2,0.5
neurOptimRevLearn_low_s001,1,0.804375200066716,270,0,0,1,0,t0,0.5
neurOptimRevLearn_low_s001,1,0.955595199950039,270,0,0,1,1,t1,0.5
neurOptimRevLearn_low_s001,1,0.936203100252897,270,0,0,1,2,t2,0.5
neurOptimRevLearn_low_s001,1,3.76604729983956,271,1,0,1,0,t0,0.5
neurOptimRevLearn_low_s001,1,1.64112859964371,271,0,1,1,1,t1,0.5
neurOptimRevLearn_low_s001,1,1.22975330008194,271,0,1,1,2,t2,0.5
neurOptimRevLearn_low_s001,1,0.774118700064719,272,1,1,1,0,t0,0.5
neurOptimRevLearn_low_s001,1,1.95503059960902,272,0,0,1,1,t1,0.5
neurOptimRevLearn_low_s001,1,1.22904729982838,272,0,0,1,2,t2,0.5
neurOptimRevLearn_low_s001,1,0.737727800151333,273,0,1,1,0,t0,0.5
neurOptimRevLearn_low_s001,1,1.22796890046448,273,1,0,1,1,t1,0.5
neurOptimRevLearn_low_s001,1,1.00936229992658,273,1,0,1,2,t2,0.5
neurOptimRevLearn_low_s001,1,0.714198499917984,274,0,1,1,0,t0,0.5
neurOptimRevLearn_low_s001,1,2.15901159960777,274,1,0,1,1,t1,0.5
neurOptimRevLearn_low_s001,1,1.09272790001705,274,1,0,1,2,t2,0.5
neurOptimRevLearn_low_s001,1,1.54751860001124,275,0,1,1,0,t0,0.5
neurOptimRevLearn_low_s001,1,1.06269020028412,275,1,0,1,1,t1,0.5
neurOptimRevLearn_low_s001,1,0.810831699986011,275,1,0,1,2,t2,0.5
neurOptimRevLearn_low_s001,1,1.84450350003317,276,1,0,1,0,t0,0.5
neurOptimRevLearn_low_s001,1,1.10222920030355,276,1,0,1,1,t1,0.5
neurOptimRevLearn_low_s001,1,0.760779100004584,276,1,0,1,2,t2,0.5
neurOptimRevLearn_low_s001,1,1.42181490012445,277,0,1,1,0,t0,0.5
neurOptimRevLearn_low_s001,1,1.63860849943012,277,1,0,1,1,t1,0.5
neurOptimRevLearn_low_s001,1,0.713793800212443,277,1,0,1,2,t2,0.5
neurOptimRevLearn_low_s001,1,0.796768300002441,278,0,1,1,0,t0,0.5
neurOptimRevLearn_low_s001,1,1.02072829939425,278,1,0,1,1,t1,0.5
neurOptimRevLearn_low_s001,1,0.778587999753654,278,1,0,1,2,t2,0.5
neurOptimRevLearn_low_s001,1,1.48812659992836,279,0,1,1,0,t0,0.5
neurOptimRevLearn_low_s001,1,1.98809190001339,279,1,0,1,1,t1,0.5
neurOptimRevLearn_low_s001,1,0.958720900118351,279,1,0,1,2,t2,0.5
neurOptimRevLearn_low_s001,1,1.03343329997733,280,1,0,1,0,t0,0.5
neurOptimRevLearn_low_s001,1,1.05909000057727,280,1,0,1,1,t1,0.5
neurOptimRevLearn_low_s001,1,0.836635899730027,280,1,0,1,2,t2,0.5
neurOptimRevLearn_low_s001,1,1.62064460013062,281,1,1,1,0,t0,0.5
neurOptimRevLearn_low_s001,1,2.32625340018421,281,0,0,1,1,t1,0.5
neurOptimRevLearn_low_s001,1,0.773459900170565,281,0,0,1,2,t2,0.5
neurOptimRevLearn_low_s001,1,0.823247299995273,282,1,1,1,0,t0,0.5
neurOptimRevLearn_low_s001,1,1.42698160000145,282,1,1,1,1,t1,0.5
neurOptimRevLearn_low_s001,1,1.22751870006323,282,0,0,1,2,t2,0.5
neurOptimRevLearn_low_s001,1,0.561629900010303,283,1,1,1,0,t0,0.5
neurOptimRevLearn_low_s001,1,2.58867369964719,283,1,1,1,1,t1,0.5
neurOptimRevLearn_low_s001,1,0.695377000141889,283,1,1,1,2,t2,0.5
neurOptimRevLearn_low_s001,1,0.861518000019714,284,1,1,1,0,t0,0.5
neurOptimRevLearn_low_s001,1,1.53136549983174,284,0,0,1,1,t1,0.5
neurOptimRevLearn_low_s001,1,0.808226900175214,284,0,0,1,2,t2,0.5
neurOptimRevLearn_low_s001,1,0.639463700121269,285,1,1,1,0,t0,0.5
neurOptimRevLearn_low_s001,1,1.38100419938564,285,1,1,1,1,t1,0.5
neurOptimRevLearn_low_s001,1,0.475487999618053,285,1,1,1,2,t2,0.5
neurOptimRevLearn_low_s001,1,1.14377399999648,286,0,1,1,0,t0,0.5
neurOptimRevLearn_low_s001,1,1.59181169979274,286,1,0,1,1,t1,0.5
neurOptimRevLearn_low_s001,1,0.958431399893016,286,0,1,1,2,t2,0.5
neurOptimRevLearn_low_s001,1,0.550337200053036,287,0,0,1,0,t0,0.5
neurOptimRevLearn_low_s001,1,1.60966050066054,287,0,0,1,1,t1,0.5
neurOptimRevLearn_low_s001,1,0.623078200034797,287,0,0,1,2,t2,0.5
neurOptimRevLearn_low_s001,1,0.560753700090572,288,1,1,1,0,t0,0.5
neurOptimRevLearn_low_s001,1,2.45072939991951,288,1,1,1,1,t1,0.5
neurOptimRevLearn_low_s001,1,0.724982999730855,288,1,1,1,2,t2,0.5
neurOptimRevLearn_low_s001,1,0.691802599932998,289,1,1,1,0,t0,0.5
neurOptimRevLearn_low_s001,1,1.22387240082026,289,1,1,1,1,t1,0.5
neurOptimRevLearn_low_s001,1,1.00849410006776,289,1,1,1,2,t2,0.5
neurOptimRevLearn_low_s001,1,0.694851000094786,290,0,1,1,0,t0,0.5
neurOptimRevLearn_low_s001,1,1.44201009999961,290,0,1,1,1,t1,0.5
neurOptimRevLearn_low_s001,1,0.772257500328124,290,0,1,1,2,t2,0.5
neurOptimRevLearn_low_s001,1,1.16960869985633,291,1,1,1,0,t0,0.5
neurOptimRevLearn_low_s001,1,1.17036169953644,291,0,0,1,1,t1,0.5
neurOptimRevLearn_low_s001,1,1.08382460009307,291,0,0,1,2,t2,0.5
neurOptimRevLearn_low_s001,1,1.20601369999349,292,1,1,1,0,t0,0.5
neurOptimRevLearn_low_s001,1,0.963326500728726,292,0,0,1,1,t1,0.5
neurOptimRevLearn_low_s001,1,0.748845800291747,292,0,0,1,2,t2,0.5
neurOptimRevLearn_low_s001,1,1.40647929999977,293,1,1,1,0,t0,0.5
neurOptimRevLearn_low_s001,1,2.01506859995425,293,0,0,1,1,t1,0.5
neurOptimRevLearn_low_s001,1,0.563661599997431,293,0,0,1,2,t2,0.5
neurOptimRevLearn_low_s001,1,1.19282380002551,294,1,1,1,0,t0,0.5
neurOptimRevLearn_low_s001,1,0.93794110044837,294,1,1,1,1,t1,0.5
neurOptimRevLearn_low_s001,1,0.744683399796486,294,1,1,1,2,t2,0.5
neurOptimRevLearn_low_s001,1,0.683019299991429,295,1,1,1,0,t0,0.5
neurOptimRevLearn_low_s001,1,2.06041620019823,295,0,0,1,1,t1,0.5
neurOptimRevLearn_low_s001,1,0.62561360001564,295,0,0,1,2,t2,0.5
neurOptimRevLearn_low_s001,1,1.53763919998892,296,1,1,1,0,t0,0.5
neurOptimRevLearn_low_s001,1,1.4267039000988,296,1,1,1,1,t1,0.5
neurOptimRevLearn_low_s001,1,0.497732799965888,296,1,1,1,2,t2,0.5
neurOptimRevLearn_low_s001,1,0.835713300155476,297,1,1,1,0,t0,0.5
neurOptimRevLearn_low_s001,1,1.65737479925156,297,1,1,1,1,t1,0.5
neurOptimRevLearn_low_s001,1,0.890329199843109,297,0,0,1,2,t2,0.5
neurOptimRevLearn_low_s001,1,0.600877200020477,298,0,1,1,0,t0,0.5
neurOptimRevLearn_low_s001,1,2.77029499970377,298,1,0,1,1,t1,0.5
neurOptimRevLearn_low_s001,1,0.740105299744755,298,0,1,1,2,t2,0.5
neurOptimRevLearn_low_s001,1,1.52608490013517,299,1,1,1,0,t0,0.5
neurOptimRevLearn_low_s001,1,1.7987119005993,299,1,1,1,1,t1,0.5
neurOptimRevLearn_low_s001,1,0.867098900023848,299,0,0,1,2,t2,0.5
neurOptimRevLearn_low_s001,1,0.675283999880776,300,0,0,1,0,t0,0.5
neurOptimRevLearn_low_s001,1,1.8454799996689,300,1,1,1,1,t1,0.5
neurOptimRevLearn_low_s001,1,0.92082260036841,300,1,1,1,2,t2,0.5
neurOptimRevLearn_low_s001,1,0.804368899902329,301,1,1,1,0,t0,0.5
neurOptimRevLearn_low_s001,1,2.17902209982276,301,1,1,1,1,t1,0.5
neurOptimRevLearn_low_s001,1,0.885308800265193,301,1,1,1,2,t2,0.5
neurOptimRevLearn_low_s001,1,0.508690199814737,302,1,1,1,0,t0,0.5
neurOptimRevLearn_low_s001,1,1.35927130002528,302,0,0,1,1,t1,0.5
neurOptimRevLearn_low_s001,1,0.986861399840564,302,1,1,1,2,t2,0.5
neurOptimRevLearn_low_s001,1,0.828494899906218,303,1,1,1,0,t0,0.5
neurOptimRevLearn_low_s001,1,1.8469425002113,303,0,0,1,1,t1,0.5
neurOptimRevLearn_low_s001,1,0.924124500248581,303,1,1,1,2,t2,0.5
neurOptimRevLearn_low_s001,1,0.653830399969593,304,1,1,1,0,t0,0.5
neurOptimRevLearn_low_s001,1,1.50300139933825,304,0,0,1,1,t1,0.5
neurOptimRevLearn_low_s001,1,0.813611399848014,304,1,1,1,2,t2,0.5
neurOptimRevLearn_low_s001,1,0.555732899811119,305,1,1,1,0,t0,0.5
neurOptimRevLearn_low_s001,1,0.912557000294328,305,0,0,1,1,t1,0.5
neurOptimRevLearn_low_s001,1,1.01053040008992,305,1,1,1,2,t2,0.5
neurOptimRevLearn_low_s001,1,0.574576599989086,306,1,1,1,0,t0,0.5
neurOptimRevLearn_low_s001,1,0.996963299810886,306,1,1,1,1,t1,0.5
neurOptimRevLearn_low_s001,1,1.07266870001331,306,1,1,1,2,t2,0.5
neurOptimRevLearn_low_s001,1,0.595767799997702,307,1,1,1,0,t0,0.5
neurOptimRevLearn_low_s001,1,1.55320560000837,307,1,1,1,1,t1,0.5
neurOptimRevLearn_low_s001,1,0.904130700044334,307,1,1,1,2,t2,0.5
neurOptimRevLearn_low_s001,1,0.680722399847582,308,1,1,1,0,t0,0.5
neurOptimRevLearn_low_s001,1,0.876828799955547,308,1,1,1,1,t1,0.5
neurOptimRevLearn_low_s001,1,0.848789800424129,308,1,1,1,2,t2,0.5
neurOptimRevLearn_low_s001,1,0.537011099979281,309,1,1,1,0,t0,0.5
neurOptimRevLearn_low_s001,1,0.91304160002619,309,1,1,1,1,t1,0.5
neurOptimRevLearn_low_s001,1,0.826140500139445,309,1,1,1,2,t2,0.5
neurOptimRevLearn_low_s001,1,0.52119049988687,310,1,1,1,0,t0,0.5
neurOptimRevLearn_low_s001,1,0.748363099992275,310,1,1,1,1,t1,0.5
neurOptimRevLearn_low_s001,1,0.776587000116706,310,1,1,1,2,t2,0.5
neurOptimRevLearn_low_s001,1,0.746909599984065,311,1,1,1,0,t0,0.5
neurOptimRevLearn_low_s001,1,1.08832569979131,311,0,0,1,1,t1,0.5
neurOptimRevLearn_low_s001,1,1.07785770017654,311,1,1,1,2,t2,0.5
neurOptimRevLearn_low_s001,1,0.43681350001134,312,1,1,1,0,t0,0.5
neurOptimRevLearn_low_s001,1,1.50629059970379,312,1,1,1,1,t1,0.5
neurOptimRevLearn_low_s001,1,0.774129699915648,312,1,1,1,2,t2,0.5
neurOptimRevLearn_low_s001,1,0.494350099936128,313,0,1,1,0,t0,0.5
neurOptimRevLearn_low_s001,1,1.126479299739,313,0,1,1,1,t1,0.5
neurOptimRevLearn_low_s001,1,0.580277900211513,313,0,1,1,2,t2,0.5
neurOptimRevLearn_low_s001,1,1.24451670004055,314,1,1,1,0,t0,0.5
neurOptimRevLearn_low_s001,1,0.924268499948084,314,1,1,1,1,t1,0.5
neurOptimRevLearn_low_s001,1,0.952517500147223,314,1,1,1,2,t2,0.5
neurOptimRevLearn_low_s001,1,0.727675700094551,315,1,1,1,0,t0,0.5
neurOptimRevLearn_low_s001,1,1.42979520000517,315,0,0,1,1,t1,0.5
neurOptimRevLearn_low_s001,1,0.96109090000391,315,1,1,1,2,t2,0.5
neurOptimRevLearn_low_s001,1,1.50430689984933,316,1,1,1,0,t0,0.5
neurOptimRevLearn_low_s001,1,1.56569730024785,316,0,0,1,1,t1,0.5
neurOptimRevLearn_low_s001,1,0.781893199775368,316,1,1,1,2,t2,0.5
neurOptimRevLearn_low_s001,1,0.627527699805796,317,1,1,1,0,t0,0.5
neurOptimRevLearn_low_s001,1,0.865833699703217,317,1,1,1,1,t1,0.5
neurOptimRevLearn_low_s001,1,0.896461799740791,317,1,1,1,2,t2,0.5
neurOptimRevLearn_low_s001,1,0.534858699887991,318,1,1,1,0,t0,0.5
neurOptimRevLearn_low_s001,1,1.28624419961125,318,1,1,1,1,t1,0.5
neurOptimRevLearn_low_s001,1,0.739937399979681,318,1,1,1,2,t2,0.5
neurOptimRevLearn_low_s001,1,1.27057129982859,319,1,1,1,0,t0,0.5
neurOptimRevLearn_low_s001,1,1.06112880073488,319,1,1,1,1,t1,0.5
neurOptimRevLearn_low_s001,1,0.958149899728596,319,1,1,1,2,t2,0.5
neurOptimRevLearn_low_s001,1,0.715680900029838,320,1,1,1,0,t0,0.5
neurOptimRevLearn_low_s001,1,1.56209089979529,320,0,0,1,1,t1,0.5
neurOptimRevLearn_low_s001,1,1.5810166997835,320,1,1,1,2,t2,0.5
neurOptimRevLearn_low_s002,1,6.42578879999928,1,1,0,2,0,t0,0.5
neurOptimRevLearn_low_s002,1,1.77212650002912,1,0,1,2,1,t1,0.5
neurOptimRevLearn_low_s002,1,2.74778070021421,1,0,1,2,2,t2,0.5
neurOptimRevLearn_low_s002,1,0.571098800050095,2,1,0,2,0,t0,0.5
neurOptimRevLearn_low_s002,1,1.16801459994167,2,0,1,2,1,t1,0.5
neurOptimRevLearn_low_s002,1,0.201255100080743,2,1,1,2,2,t2,0.5
neurOptimRevLearn_low_s002,1,0.453602000139654,3,0,1,2,0,t0,0.5
neurOptimRevLearn_low_s002,1,0.290328100323677,3,0,1,2,1,t1,0.5
neurOptimRevLearn_low_s002,1,0.563346800394356,3,0,1,2,2,t2,0.5
neurOptimRevLearn_low_s002,1,0.309942400082946,4,0,1,2,0,t0,0.5
neurOptimRevLearn_low_s002,1,1.47405179985799,4,0,1,2,1,t1,0.5
neurOptimRevLearn_low_s002,1,0.387139699887484,4,0,0,2,2,t2,0.5
neurOptimRevLearn_low_s002,1,0.35280799982138,5,1,0,2,0,t0,0.5
neurOptimRevLearn_low_s002,1,2.85184849984944,5,0,1,2,1,t1,0.5
neurOptimRevLearn_low_s002,1,0.375709400046617,5,1,0,2,2,t2,0.5
neurOptimRevLearn_low_s002,1,0.388421199982986,6,1,0,2,0,t0,0.5
neurOptimRevLearn_low_s002,1,1.88319410011172,6,0,1,2,1,t1,0.5
neurOptimRevLearn_low_s002,1,0.440252800006419,6,0,1,2,2,t2,0.5
neurOptimRevLearn_low_s002,1,0.507810600101948,7,1,0,2,0,t0,0.5
neurOptimRevLearn_low_s002,1,1.83212380018085,7,0,1,2,1,t1,0.5
neurOptimRevLearn_low_s002,1,0.294815999921411,7,1,0,2,2,t2,0.5
neurOptimRevLearn_low_s002,1,0.44733739993535,8,1,0,2,0,t0,0.5
neurOptimRevLearn_low_s002,1,1.74362840037793,8,1,0,2,1,t1,0.5
neurOptimRevLearn_low_s002,1,0.430670300032944,8,0,1,2,2,t2,0.5
neurOptimRevLearn_low_s002,1,0.730102800065652,9,0,1,2,0,t0,0.5
neurOptimRevLearn_low_s002,1,1.69641689956188,9,1,1,2,1,t1,0.5
neurOptimRevLearn_low_s002,1,0.380935000022873,9,0,0,2,2,t2,0.5
neurOptimRevLearn_low_s002,1,0.949788899859414,10,1,0,2,0,t0,0.5
neurOptimRevLearn_low_s002,1,2.16604380030185,10,1,1,2,1,t1,0.5
neurOptimRevLearn_low_s002,1,0.305379500146955,10,0,0,2,2,t2,0.5
neurOptimRevLearn_low_s002,1,0.391652500024065,11,1,0,2,0,t0,0.5
neurOptimRevLearn_low_s002,1,2.39997219946235,11,0,1,2,1,t1,0.5
neurOptimRevLearn_low_s002,1,0.307045399909839,11,0,1,2,2,t2,0.5
neurOptimRevLearn_low_s002,1,0.628928799880669,12,0,1,2,0,t0,0.5
neurOptimRevLearn_low_s002,1,1.77165659982711,12,1,1,2,1,t1,0.5
neurOptimRevLearn_low_s002,1,0.300053700106218,12,0,0,2,2,t2,0.5
neurOptimRevLearn_low_s002,1,0.259489099960774,13,0,1,2,0,t0,0.5
neurOptimRevLearn_low_s002,1,2.32790700066835,13,1,1,2,1,t1,0.5
neurOptimRevLearn_low_s002,1,0.322488199919462,13,1,1,2,2,t2,0.5
neurOptimRevLearn_low_s002,1,0.205392299918458,14,1,0,2,0,t0,0.5
neurOptimRevLearn_low_s002,1,3.77823700010777,14,1,0,2,1,t1,0.5
neurOptimRevLearn_low_s002,1,0.333960700081661,14,1,0,2,2,t2,0.5
neurOptimRevLearn_low_s002,1,0.597317100036889,15,1,0,2,0,t0,0.5
neurOptimRevLearn_low_s002,1,3.27660619933158,15,1,0,2,1,t1,0.5
neurOptimRevLearn_low_s002,1,0.264631900005043,15,0,1,2,2,t2,0.5
neurOptimRevLearn_low_s002,1,1.56710989982821,16,0,1,2,0,t0,0.5
neurOptimRevLearn_low_s002,1,2.64059600047767,16,0,1,2,1,t1,0.5
neurOptimRevLearn_low_s002,1,0.401197299999694,16,0,1,2,2,t2,0.5
neurOptimRevLearn_low_s002,1,0.608348898589611,17,0,0,2,0,t0,0.5
neurOptimRevLearn_low_s002,1,1.21775669977069,17,0,1,2,1,t1,0.5
neurOptimRevLearn_low_s002,1,0.541729599935934,17,0,1,2,2,t2,0.5
neurOptimRevLearn_low_s002,1,0.859705399954692,18,0,1,2,0,t0,0.5
neurOptimRevLearn_low_s002,1,1.00854940060526,18,1,1,2,1,t1,0.5
neurOptimRevLearn_low_s002,1,0.37141939997673,18,0,0,2,2,t2,0.5
neurOptimRevLearn_low_s002,1,0.985989199951291,19,0,1,2,0,t0,0.5
neurOptimRevLearn_low_s002,1,2.18348320014775,19,0,1,2,1,t1,0.5
neurOptimRevLearn_low_s002,1,0.519529800862074,19,0,1,2,2,t2,0.5
neurOptimRevLearn_low_s002,1,1.87490609986708,20,1,0,2,0,t0,0.5
neurOptimRevLearn_low_s002,1,1.79991570021957,20,1,1,2,1,t1,0.5
neurOptimRevLearn_low_s002,1,0.443325400119647,20,0,0,2,2,t2,0.5
neurOptimRevLearn_low_s002,1,0.466009100200608,21,0,1,2,0,t0,0.5
neurOptimRevLearn_low_s002,1,5.03889029938728,21,0,1,2,1,t1,0.5
neurOptimRevLearn_low_s002,1,0.244579400168732,21,0,1,2,2,t2,0.5
neurOptimRevLearn_low_s002,1,0.996385999955237,22,0,1,2,0,t0,0.5
neurOptimRevLearn_low_s002,1,2.90944889932871,22,0,1,2,1,t1,0.5
neurOptimRevLearn_low_s002,1,0.292908600065857,22,1,0,2,2,t2,0.5
neurOptimRevLearn_low_s002,1,0.362580299843103,23,0,1,2,0,t0,0.5
neurOptimRevLearn_low_s002,1,1.19950360059738,23,1,0,2,1,t1,0.5
neurOptimRevLearn_low_s002,1,0.562208900228143,23,0,1,2,2,t2,0.5
neurOptimRevLearn_low_s002,1,0.598624699981883,24,0,1,2,0,t0,0.5
neurOptimRevLearn_low_s002,1,2.8518821997568,24,0,0,2,1,t1,0.5
neurOptimRevLearn_low_s002,1,0.679716899991036,24,0,1,2,2,t2,0.5
neurOptimRevLearn_low_s002,1,0.485635300166905,25,0,1,2,0,t0,0.5
neurOptimRevLearn_low_s002,1,2.42703950032592,25,0,1,2,1,t1,0.5
neurOptimRevLearn_low_s002,1,0.48529540002346,25,0,1,2,2,t2,0.5
neurOptimRevLearn_low_s002,1,0.377105100080371,26,1,0,2,0,t0,0.5
neurOptimRevLearn_low_s002,1,0.638820200227201,26,1,0,2,1,t1,0.5
neurOptimRevLearn_low_s002,1,0.333099600000423,26,0,1,2,2,t2,0.5
neurOptimRevLearn_low_s002,1,0.615699399961159,27,1,0,2,0,t0,0.5
neurOptimRevLearn_low_s002,1,3.91410079970956,27,0,1,2,1,t1,0.5
neurOptimRevLearn_low_s002,1,0.769719099625945,27,0,1,2,2,t2,0.5
neurOptimRevLearn_low_s002,1,0.684481600066647,28,0,0,2,0,t0,0.5
neurOptimRevLearn_low_s002,1,5.65424279961735,28,0,1,2,1,t1,0.5
neurOptimRevLearn_low_s002,1,0.266994999954477,28,0,1,2,2,t2,0.5
neurOptimRevLearn_low_s002,1,0.672757899854332,29,0,1,2,0,t0,0.5
neurOptimRevLearn_low_s002,1,0.668071300722659,29,0,1,2,1,t1,0.5
neurOptimRevLearn_low_s002,1,0.23804059997201,29,1,0,2,2,t2,0.5
neurOptimRevLearn_low_s002,1,0.380444099893793,30,1,0,2,0,t0,0.5
neurOptimRevLearn_low_s002,1,1.00048829987645,30,0,1,2,1,t1,0.5
neurOptimRevLearn_low_s002,1,0.553939700126648,30,0,1,2,2,t2,0.5
neurOptimRevLearn_low_s002,1,0.778665399877355,31,1,0,2,0,t0,0.5
neurOptimRevLearn_low_s002,1,1.27413440030068,31,0,1,2,1,t1,0.5
neurOptimRevLearn_low_s002,1,0.409086099825799,31,1,0,2,2,t2,0.5
neurOptimRevLearn_low_s002,1,0.548316499916837,32,1,0,2,0,t0,0.5
neurOptimRevLearn_low_s002,1,0.524592800065875,32,0,1,2,1,t1,0.5
neurOptimRevLearn_low_s002,1,1.24014070001431,32,1,0,2,2,t2,0.5
neurOptimRevLearn_low_s002,1,0.948024799814448,33,0,1,2,0,t0,0.5
neurOptimRevLearn_low_s002,1,1.03110499959439,33,0,1,2,1,t1,0.5
neurOptimRevLearn_low_s002,1,0.446984300157055,33,1,0,2,2,t2,0.5
neurOptimRevLearn_low_s002,1,0.278430500067771,34,1,0,2,0,t0,0.5
neurOptimRevLearn_low_s002,1,2.16447180043906,34,1,0,2,1,t1,0.5
neurOptimRevLearn_low_s002,1,0.345880599925295,34,0,1,2,2,t2,0.5
neurOptimRevLearn_low_s002,1,0.261830099858344,35,0,1,2,0,t0,0.5
neurOptimRevLearn_low_s002,1,4.69585919938982,35,1,0,2,1,t1,0.5
neurOptimRevLearn_low_s002,1,0.291255100164562,35,1,0,2,2,t2,0.5
neurOptimRevLearn_low_s002,1,0.268558399984613,36,0,0,2,0,t0,0.5
neurOptimRevLearn_low_s002,1,5.46867529954761,36,1,0,2,1,t1,0.5
neurOptimRevLearn_low_s002,1,0.585621600039303,36,1,0,2,2,t2,0.5
neurOptimRevLearn_low_s002,1,0.292422099970281,37,1,0,2,0,t0,0.5
neurOptimRevLearn_low_s002,1,3.17334849946201,37,1,0,2,1,t1,0.5
neurOptimRevLearn_low_s002,1,0.290022699860856,37,0,1,2,2,t2,0.5
neurOptimRevLearn_low_s002,1,0.322657800046727,38,1,0,2,0,t0,0.5
neurOptimRevLearn_low_s002,1,3.09849989973009,38,0,1,2,1,t1,0.5
neurOptimRevLearn_low_s002,1,0.524298599921167,38,0,0,2,2,t2,0.5
neurOptimRevLearn_low_s002,1,0.261942500015721,39,0,1,2,0,t0,0.5
neurOptimRevLearn_low_s002,1,0.385946599766612,39,1,1,2,1,t1,0.5
neurOptimRevLearn_low_s002,1,0.279708500020206,39,0,0,2,2,t2,0.5
neurOptimRevLearn_low_s002,1,0.285949199926108,40,1,0,2,0,t0,0.5
neurOptimRevLearn_low_s002,1,1.53717579971999,40,1,0,2,1,t1,0.5
neurOptimRevLearn_low_s002,1,0.587915000040084,40,0,1,2,2,t2,0.5
neurOptimRevLearn_low_s002,1,0.924147099955007,41,0,0,2,0,t0,0.5
neurOptimRevLearn_low_s002,1,2.60150630027056,41,0,0,2,1,t1,0.5
neurOptimRevLearn_low_s002,1,0.486874099820852,41,0,0,2,2,t2,0.5
neurOptimRevLearn_low_s002,1,0.765742100000011,42,0,0,2,0,t0,0.5
neurOptimRevLearn_low_s002,1,0.799286499619484,42,0,0,2,1,t1,0.5
neurOptimRevLearn_low_s002,1,0.23015969991684,42,1,1,2,2,t2,0.5
neurOptimRevLearn_low_s002,1,0.481418899958953,43,0,0,2,0,t0,0.5
neurOptimRevLearn_low_s002,1,0.409957899712026,43,0,0,2,1,t1,0.5
neurOptimRevLearn_low_s002,1,0.468983399914578,43,0,0,2,2,t2,0.5
neurOptimRevLearn_low_s002,1,0.615646499907598,44,1,1,2,0,t0,0.5
neurOptimRevLearn_low_s002,1,0.704072600230575,44,1,1,2,1,t1,0.5
neurOptimRevLearn_low_s002,1,0.474785999860615,44,1,1,2,2,t2,0.5
neurOptimRevLearn_low_s002,1,0.81168289994821,45,1,1,2,0,t0,0.5
neurOptimRevLearn_low_s002,1,4.6185890994966,45,0,0,2,1,t1,0.5
neurOptimRevLearn_low_s002,1,0.246786399977282,45,1,1,2,2,t2,0.5
neurOptimRevLearn_low_s002,1,0.255282700061798,46,1,1,2,0,t0,0.5
neurOptimRevLearn_low_s002,1,2.16023919917643,46,0,0,2,1,t1,0.5
neurOptimRevLearn_low_s002,1,0.328689099987969,46,1,1,2,2,t2,0.5
neurOptimRevLearn_low_s002,1,0.855069000041112,47,0,0,2,0,t0,0.5
neurOptimRevLearn_low_s002,1,5.79319670051336,47,0,0,2,1,t1,0.5
neurOptimRevLearn_low_s002,1,0.360494400141761,47,0,0,2,2,t2,0.5
neurOptimRevLearn_low_s002,1,0.483466800069436,48,1,1,2,0,t0,0.5
neurOptimRevLearn_low_s002,1,2.30022569932044,48,1,1,2,1,t1,0.5
neurOptimRevLearn_low_s002,1,0.522895399481058,48,1,1,2,2,t2,0.5
neurOptimRevLearn_low_s002,1,0.507507900008932,49,1,0,2,0,t0,0.5
neurOptimRevLearn_low_s002,1,4.47514559980482,49,1,1,2,1,t1,0.5
neurOptimRevLearn_low_s002,1,0.269140399992466,49,1,1,2,2,t2,0.5
neurOptimRevLearn_low_s002,1,1.26730050006881,50,1,1,2,0,t0,0.5
neurOptimRevLearn_low_s002,1,0.668577299918979,50,0,0,2,1,t1,0.5
neurOptimRevLearn_low_s002,1,0.331248300150037,50,0,0,2,2,t2,0.5
neurOptimRevLearn_low_s002,1,1.24589790008031,51,1,1,2,0,t0,0.5
neurOptimRevLearn_low_s002,1,1.52220989950001,51,1,1,2,1,t1,0.5
neurOptimRevLearn_low_s002,1,0.500400900840759,51,0,0,2,2,t2,0.5
neurOptimRevLearn_low_s002,1,0.992006400134414,52,1,1,2,0,t0,0.5
neurOptimRevLearn_low_s002,1,1.25752919912338,52,1,1,2,1,t1,0.5
neurOptimRevLearn_low_s002,1,0.392481500050053,52,1,1,2,2,t2,0.5
neurOptimRevLearn_low_s002,1,1.35029769991525,53,0,0,2,0,t0,0.5
neurOptimRevLearn_low_s002,1,2.34873160067946,53,0,0,2,1,t1,0.5
neurOptimRevLearn_low_s002,1,0.237755900016055,53,1,1,2,2,t2,0.5
neurOptimRevLearn_low_s002,1,0.957880700007081,54,0,0,2,0,t0,0.5
neurOptimRevLearn_low_s002,1,0.656473400071263,54,1,1,2,1,t1,0.5
neurOptimRevLearn_low_s002,1,0.336308100027964,54,0,0,2,2,t2,0.5
neurOptimRevLearn_low_s002,1,0.2583852999378,55,0,0,2,0,t0,0.5
neurOptimRevLearn_low_s002,1,2.25511589925736,55,0,0,2,1,t1,0.5
neurOptimRevLearn_low_s002,1,0.730480200145394,55,1,1,2,2,t2,0.5
neurOptimRevLearn_low_s002,1,0.552481600083411,56,0,1,2,0,t0,0.5
neurOptimRevLearn_low_s002,1,0.450637199915946,56,0,0,2,1,t1,0.5
neurOptimRevLearn_low_s002,1,0.306893300032243,56,0,0,2,2,t2,0.5
neurOptimRevLearn_low_s002,1,0.425380300031975,57,0,0,2,0,t0,0.5
neurOptimRevLearn_low_s002,1,0.577891299501061,57,1,1,2,1,t1,0.5
neurOptimRevLearn_low_s002,1,0.360056600067765,57,0,0,2,2,t2,0.5
neurOptimRevLearn_low_s002,1,0.380140699911863,58,0,0,2,0,t0,0.5
neurOptimRevLearn_low_s002,1,0.78407880011946,58,1,1,2,1,t1,0.5
neurOptimRevLearn_low_s002,1,0.418164499802515,58,0,0,2,2,t2,0.5
neurOptimRevLearn_low_s002,1,0.760603100061417,59,0,0,2,0,t0,0.5
neurOptimRevLearn_low_s002,1,1.18819219991565,59,0,0,2,1,t1,0.5
neurOptimRevLearn_low_s002,1,0.278319299919531,59,0,0,2,2,t2,0.5
neurOptimRevLearn_low_s002,1,0.364933000179008,60,1,1,2,0,t0,0.5
neurOptimRevLearn_low_s002,1,0.795063399709761,60,1,1,2,1,t1,0.5
neurOptimRevLearn_low_s002,1,0.243813500041142,60,0,0,2,2,t2,0.5
neurOptimRevLearn_low_s002,1,0.253229700028896,61,0,0,2,0,t0,0.5
neurOptimRevLearn_low_s002,1,0.898019999265671,61,1,1,2,1,t1,0.5
neurOptimRevLearn_low_s002,1,0.314551899908111,61,1,1,2,2,t2,0.5
neurOptimRevLearn_low_s002,1,0.289216199889779,62,0,1,2,0,t0,0.5
neurOptimRevLearn_low_s002,1,0.731909199617803,62,1,1,2,1,t1,0.5
neurOptimRevLearn_low_s002,1,0.5581388999708,62,0,0,2,2,t2,0.5
neurOptimRevLearn_low_s002,1,0.25921169994399,63,1,1,2,0,t0,0.5
neurOptimRevLearn_low_s002,1,0.395200899802148,63,0,0,2,1,t1,0.5
neurOptimRevLearn_low_s002,1,0.264741399791092,63,1,1,2,2,t2,0.5
neurOptimRevLearn_low_s002,1,0.274671599967405,64,0,0,2,0,t0,0.5
neurOptimRevLearn_low_s002,1,0.416958400048316,64,1,1,2,1,t1,0.5
neurOptimRevLearn_low_s002,1,0.849622300127521,64,0,0,2,2,t2,0.5
neurOptimRevLearn_low_s002,1,0.274934899993241,65,0,0,2,0,t0,0.5
neurOptimRevLearn_low_s002,1,0.373252600431442,65,0,0,2,1,t1,0.5
neurOptimRevLearn_low_s002,1,0.434675736352801,65,0,0,2,2,t2,0.5
neurOptimRevLearn_low_s002,1,0.324376600096002,66,0,0,2,0,t0,0.5
neurOptimRevLearn_low_s002,1,0.26527229975909,66,0,0,2,1,t1,0.5
neurOptimRevLearn_low_s002,1,0.74148950073868,66,0,0,2,2,t2,0.5
neurOptimRevLearn_low_s002,1,0.5293767999392,67,0,0,2,0,t0,0.5
neurOptimRevLearn_low_s002,1,0.357025899924338,67,0,0,2,1,t1,0.5
neurOptimRevLearn_low_s002,1,0.479820299893618,67,1,1,2,2,t2,0.5
neurOptimRevLearn_low_s002,1,0.569660000037402,68,0,0,2,0,t0,0.5
neurOptimRevLearn_low_s002,1,0.407438900321722,68,1,1,2,1,t1,0.5
neurOptimRevLearn_low_s002,1,0.392307200003415,68,1,1,2,2,t2,0.5
neurOptimRevLearn_low_s002,1,0.626057399902493,69,1,1,2,0,t0,0.5
neurOptimRevLearn_low_s002,1,0.784697299823165,69,1,1,2,1,t1,0.5
neurOptimRevLearn_low_s002,1,0.525296401232481,69,1,1,2,2,t2,0.5
neurOptimRevLearn_low_s002,1,1.32452300004661,70,1,1,2,0,t0,0.5
neurOptimRevLearn_low_s002,1,0.478062599897385,70,1,1,2,1,t1,0.5
neurOptimRevLearn_low_s002,1,0.615536900004372,70,0,0,2,2,t2,0.5
neurOptimRevLearn_low_s002,1,1.41653049993329,71,1,1,2,0,t0,0.5
neurOptimRevLearn_low_s002,1,1.80689749959856,71,0,0,2,1,t1,0.5
neurOptimRevLearn_low_s002,1,0.297622999874875,71,0,0,2,2,t2,0.5
neurOptimRevLearn_low_s002,1,2.03574959980324,72,0,0,2,0,t0,0.5
neurOptimRevLearn_low_s002,1,0.377573899924755,72,0,0,2,1,t1,0.5
neurOptimRevLearn_low_s002,1,0.566015599993989,72,0,0,2,2,t2,0.5
neurOptimRevLearn_low_s002,1,0.41120390011929,73,1,1,2,0,t0,0.5
neurOptimRevLearn_low_s002,1,0.590145399793983,73,0,0,2,1,t1,0.5
neurOptimRevLearn_low_s002,1,0.279967000009492,73,1,1,2,2,t2,0.5
neurOptimRevLearn_low_s002,1,1.03047510003671,74,0,0,2,0,t0,0.5
neurOptimRevLearn_low_s002,1,0.347043300047517,74,0,0,2,1,t1,0.5
neurOptimRevLearn_low_s002,1,0.624038700014353,74,0,0,2,2,t2,0.5
neurOptimRevLearn_low_s002,1,0.529564899858087,75,1,1,2,0,t0,0.5
neurOptimRevLearn_low_s002,1,0.387268600054085,75,0,0,2,1,t1,0.5
neurOptimRevLearn_low_s002,1,0.389873099979013,75,0,0,2,2,t2,0.5
neurOptimRevLearn_low_s002,1,1.21555820014328,76,1,1,2,0,t0,0.5
neurOptimRevLearn_low_s002,1,0.781408900395036,76,1,1,2,1,t1,0.5
neurOptimRevLearn_low_s002,1,0.60882050008513,76,1,1,2,2,t2,0.5
neurOptimRevLearn_low_s002,1,1.6677826999221,77,0,0,2,0,t0,0.5
neurOptimRevLearn_low_s002,1,0.573122600093484,77,0,0,2,1,t1,0.5
neurOptimRevLearn_low_s002,1,0.671415400225669,77,0,0,2,2,t2,0.5
neurOptimRevLearn_low_s002,1,0.836112200049684,78,0,0,2,0,t0,0.5
neurOptimRevLearn_low_s002,1,0.668538600206375,78,0,0,2,1,t1,0.5
neurOptimRevLearn_low_s002,1,1.28771609999239,78,0,0,2,2,t2,0.5
neurOptimRevLearn_low_s002,1,0.375979600008577,79,1,1,2,0,t0,0.5
neurOptimRevLearn_low_s002,1,1.51834669988602,79,1,1,2,1,t1,0.5
neurOptimRevLearn_low_s002,1,0.457096300087869,79,0,0,2,2,t2,0.5
neurOptimRevLearn_low_s002,1,0.535669200122356,80,0,1,2,0,t0,0.5
neurOptimRevLearn_low_s002,1,0.695227299816907,80,0,0,2,1,t1,0.5
neurOptimRevLearn_low_s002,1,0.382001700112596,80,1,1,2,2,t2,0.5
neurOptimRevLearn_low_s002,1,0.485808400204405,81,1,0,2,0,t0,0.5
neurOptimRevLearn_low_s002,1,0.542224599979818,81,0,1,2,1,t1,0.5
neurOptimRevLearn_low_s002,1,0.458569299895316,81,0,1,2,2,t2,0.5
neurOptimRevLearn_low_s002,1,0.606532199773938,82,0,1,2,0,t0,0.5
neurOptimRevLearn_low_s002,1,0.217939699999988,82,1,0,2,1,t1,0.5
neurOptimRevLearn_low_s002,1,0.447122900048271,82,1,0,2,2,t2,0.5
neurOptimRevLearn_low_s002,1,0.3619589000009,83,1,0,2,0,t0,0.5
neurOptimRevLearn_low_s002,1,0.770458899438381,83,1,0,2,1,t1,0.5
neurOptimRevLearn_low_s002,1,2.1691439000424,83,1,0,2,2,t2,0.5
neurOptimRevLearn_low_s002,1,0.918676600093022,84,1,0,2,0,t0,0.5
neurOptimRevLearn_low_s002,1,0.999014600180089,84,0,1,2,1,t1,0.5
neurOptimRevLearn_low_s002,1,1.28308900003321,84,0,1,2,2,t2,0.5
neurOptimRevLearn_low_s002,1,1.64808099996299,85,0,0,2,0,t0,0.5
neurOptimRevLearn_low_s002,1,0.528768599964678,85,0,0,2,1,t1,0.5
neurOptimRevLearn_low_s002,1,0.400768300052732,85,0,0,2,2,t2,0.5
neurOptimRevLearn_low_s002,1,0.566130500053987,86,1,0,2,0,t0,0.5
neurOptimRevLearn_low_s002,1,0.990913300774992,86,0,1,2,1,t1,0.5
neurOptimRevLearn_low_s002,1,0.401745700044557,86,1,0,2,2,t2,0.5
neurOptimRevLearn_low_s002,1,1.02820009994321,87,1,0,2,0,t0,0.5
neurOptimRevLearn_low_s002,1,1.15232230070978,87,1,0,2,1,t1,0.5
neurOptimRevLearn_low_s002,1,0.351321700029075,87,1,0,2,2,t2,0.5
neurOptimRevLearn_low_s002,1,0.839876499958336,88,1,1,2,0,t0,0.5
neurOptimRevLearn_low_s002,1,1.29261800087988,88,1,0,2,1,t1,0.5
neurOptimRevLearn_low_s002,1,0.332121000159532,88,1,0,2,2,t2,0.5
neurOptimRevLearn_low_s002,1,1.26429620012641,89,0,1,2,0,t0,0.5
neurOptimRevLearn_low_s002,1,1.68613729998469,89,1,0,2,1,t1,0.5
neurOptimRevLearn_low_s002,1,0.595942700048909,89,1,0,2,2,t2,0.5
neurOptimRevLearn_low_s002,1,0.720582600217313,90,0,1,2,0,t0,0.5
neurOptimRevLearn_low_s002,1,3.16306789964438,90,0,1,2,1,t1,0.5
neurOptimRevLearn_low_s002,1,0.531580599956214,90,1,0,2,2,t2,0.5
neurOptimRevLearn_low_s002,1,0.573788499925286,91,0,1,2,0,t0,0.5
neurOptimRevLearn_low_s002,1,0.418022199999541,91,0,1,2,1,t1,0.5
neurOptimRevLearn_low_s002,1,0.440951899858192,91,1,0,2,2,t2,0.5
neurOptimRevLearn_low_s002,1,0.276984800118953,92,1,0,2,0,t0,0.5
neurOptimRevLearn_low_s002,1,0.476432899944484,92,0,1,2,1,t1,0.5
neurOptimRevLearn_low_s002,1,0.799323099898174,92,0,1,2,2,t2,0.5
neurOptimRevLearn_low_s002,1,0.983156199799851,93,0,1,2,0,t0,0.5
neurOptimRevLearn_low_s002,1,0.556986600160599,93,0,1,2,1,t1,0.5
neurOptimRevLearn_low_s002,1,0.340406299801543,93,1,0,2,2,t2,0.5
neurOptimRevLearn_low_s002,1,0.241523200180382,94,1,0,2,0,t0,0.5
neurOptimRevLearn_low_s002,1,0.707209100015461,94,1,0,2,1,t1,0.5
neurOptimRevLearn_low_s002,1,0.566911800066009,94,0,1,2,2,t2,0.5
neurOptimRevLearn_low_s002,1,0.618879300076515,95,0,1,2,0,t0,0.5
neurOptimRevLearn_low_s002,1,0.940841600298882,95,0,0,2,1,t1,0.5
neurOptimRevLearn_low_s002,1,0.410846499959007,95,1,1,2,2,t2,0.5
neurOptimRevLearn_low_s002,1,0.335870299953967,96,1,0,2,0,t0,0.5
neurOptimRevLearn_low_s002,1,0.473508699797094,96,0,1,2,1,t1,0.5
neurOptimRevLearn_low_s002,1,0.237513100029901,96,0,1,2,2,t2,0.5
neurOptimRevLearn_low_s002,1,0.921354599995539,97,0,1,2,0,t0,0.5
neurOptimRevLearn_low_s002,1,0.546133699826896,97,0,1,2,1,t1,0.5
neurOptimRevLearn_low_s002,1,0.385354599915445,97,0,1,2,2,t2,0.5
neurOptimRevLearn_low_s002,1,0.444554999936372,98,0,1,2,0,t0,0.5
neurOptimRevLearn_low_s002,1,0.39588759932667,98,0,1,2,1,t1,0.5
neurOptimRevLearn_low_s002,1,0.286208200035617,98,1,0,2,2,t2,0.5
neurOptimRevLearn_low_s002,1,0.499686500057578,99,0,1,2,0,t0,0.5
neurOptimRevLearn_low_s002,1,0.74327249918133,99,1,0,2,1,t1,0.5
neurOptimRevLearn_low_s002,1,0.263526000082493,99,1,0,2,2,t2,0.5
neurOptimRevLearn_low_s002,1,0.327018300071359,100,1,0,2,0,t0,0.5
neurOptimRevLearn_low_s002,1,2.2378433002159,100,0,1,2,1,t1,0.5
neurOptimRevLearn_low_s002,1,0.389677600003779,100,0,1,2,2,t2,0.5
neurOptimRevLearn_low_s002,1,0.472842199960724,101,1,0,2,0,t0,0.5
neurOptimRevLearn_low_s002,1,2.3923378996551,101,1,0,2,1,t1,0.5
neurOptimRevLearn_low_s002,1,0.796482500154525,101,0,1,2,2,t2,0.5
neurOptimRevLearn_low_s002,1,1.40253799990751,102,0,1,2,0,t0,0.5
neurOptimRevLearn_low_s002,1,1.94461539946496,102,1,0,2,1,t1,0.5
neurOptimRevLearn_low_s002,1,0.400788200087845,102,1,0,2,2,t2,0.5
neurOptimRevLearn_low_s002,1,1.40253799990751,103,0,1,2,0,t0,0.5
neurOptimRevLearn_low_s002,1,1.86200029961765,103,1,0,2,1,t1,0.5
neurOptimRevLearn_low_s002,1,0.392847399925813,103,0,1,2,2,t2,0.5
neurOptimRevLearn_low_s002,1,0.348997800145298,104,1,0,2,0,t0,0.5
neurOptimRevLearn_low_s002,1,1.34328330028802,104,0,1,2,1,t1,0.5
neurOptimRevLearn_low_s002,1,0.227634400129318,104,0,1,2,2,t2,0.5
neurOptimRevLearn_low_s002,1,0.621422100113705,105,1,0,2,0,t0,0.5
neurOptimRevLearn_low_s002,1,0.30857830028981,105,1,0,2,1,t1,0.5
neurOptimRevLearn_low_s002,1,0.409185300115496,105,1,0,2,2,t2,0.5
neurOptimRevLearn_low_s002,1,0.82363159977831,106,0,1,2,0,t0,0.5
neurOptimRevLearn_low_s002,1,1.04665879998356,106,0,1,2,1,t1,0.5
neurOptimRevLearn_low_s002,1,0.49027070007287,106,1,0,2,2,t2,0.5
neurOptimRevLearn_low_s002,1,0.737187099992298,107,1,0,2,0,t0,0.5
neurOptimRevLearn_low_s002,1,0.477092299610376,107,0,1,2,1,t1,0.5
neurOptimRevLearn_low_s002,1,1.47989890002646,107,0,1,2,2,t2,0.5
neurOptimRevLearn_low_s002,1,0.36824330012314,108,0,1,2,0,t0,0.5
neurOptimRevLearn_low_s002,1,0.479216000065208,108,1,0,2,1,t1,0.5
neurOptimRevLearn_low_s002,1,0.73484589997679,108,0,1,2,2,t2,0.5
neurOptimRevLearn_low_s002,1,0.327969199977815,109,1,0,2,0,t0,0.5
neurOptimRevLearn_low_s002,1,0.926696300506592,109,0,1,2,1,t1,0.5
neurOptimRevLearn_low_s002,1,0.855769899906591,109,0,1,2,2,t2,0.5
neurOptimRevLearn_low_s002,1,0.729428600054234,110,1,1,2,0,t0,0.5
neurOptimRevLearn_low_s002,1,0.555612399242818,110,1,0,2,1,t1,0.5
neurOptimRevLearn_low_s002,1,0.799456299981102,110,0,1,2,2,t2,0.5
neurOptimRevLearn_low_s002,1,0.808122999966145,111,1,0,2,0,t0,0.5
neurOptimRevLearn_low_s002,1,1.18551249988377,111,1,0,2,1,t1,0.5
neurOptimRevLearn_low_s002,1,0.420629699947312,111,1,0,2,2,t2,0.5
neurOptimRevLearn_low_s002,1,1.38656060001813,112,0,1,2,0,t0,0.5
neurOptimRevLearn_low_s002,1,1.17738180048764,112,1,0,2,1,t1,0.5
neurOptimRevLearn_low_s002,1,1.47010090015829,112,1,0,2,2,t2,0.5
neurOptimRevLearn_low_s002,1,0.309305999893695,113,1,0,2,0,t0,0.5
neurOptimRevLearn_low_s002,1,1.63621210027486,113,1,0,2,1,t1,0.5
neurOptimRevLearn_low_s002,1,1.86255439999513,113,0,1,2,2,t2,0.5
neurOptimRevLearn_low_s002,1,0.65372410020791,114,0,1,2,0,t0,0.5
neurOptimRevLearn_low_s002,1,4.09378009941429,114,0,0,2,1,t1,0.5
neurOptimRevLearn_low_s002,1,0.479628500062972,114,1,1,2,2,t2,0.5
neurOptimRevLearn_low_s002,1,0.981644399929792,115,0,1,2,0,t0,0.5
neurOptimRevLearn_low_s002,1,0.347334800288081,115,1,0,2,1,t1,0.5
neurOptimRevLearn_low_s002,1,1.50664600008167,115,1,0,2,2,t2,0.5
neurOptimRevLearn_low_s002,1,0.507300199940801,116,0,1,2,0,t0,0.5
neurOptimRevLearn_low_s002,1,0.470793699845672,116,0,1,2,1,t1,0.5
neurOptimRevLearn_low_s002,1,1.85776020004414,116,0,1,2,2,t2,0.5
neurOptimRevLearn_low_s002,1,0.632047399878502,117,1,0,2,0,t0,0.5
neurOptimRevLearn_low_s002,1,0.456591100431979,117,0,1,2,1,t1,0.5
neurOptimRevLearn_low_s002,1,0.444716800004244,117,0,1,2,2,t2,0.5
neurOptimRevLearn_low_s002,1,1.18408309994265,118,1,0,2,0,t0,0.5
neurOptimRevLearn_low_s002,1,0.375870699994266,118,1,1,2,1,t1,0.5
neurOptimRevLearn_low_s002,1,0.913943199906498,118,0,0,2,2,t2,0.5
neurOptimRevLearn_low_s002,1,0.965309200109914,119,1,0,2,0,t0,0.5
neurOptimRevLearn_low_s002,1,1.18419189937413,119,0,1,2,1,t1,0.5
neurOptimRevLearn_low_s002,1,1.66624030005187,119,0,1,2,2,t2,0.5
neurOptimRevLearn_low_s002,1,1.3943318000529,120,1,0,2,0,t0,0.5
neurOptimRevLearn_low_s002,1,0.53432559967041,120,1,0,2,1,t1,0.5
neurOptimRevLearn_low_s002,1,0.415887200040743,120,1,0,2,2,t2,0.5
neurOptimRevLearn_low_s002,1,2.06117379991338,121,1,1,2,0,t0,0.5
neurOptimRevLearn_low_s002,1,1.86799240019172,121,0,0,2,1,t1,0.5
neurOptimRevLearn_low_s002,1,0.94636690011248,121,0,0,2,2,t2,0.5
neurOptimRevLearn_low_s002,1,1.34595749992877,122,0,0,2,0,t0,0.5
neurOptimRevLearn_low_s002,1,0.428527399897575,122,0,0,2,1,t1,0.5
neurOptimRevLearn_low_s002,1,0.719468499999493,122,0,0,2,2,t2,0.5
neurOptimRevLearn_low_s002,1,0.239799299975857,123,0,0,2,0,t0,0.5
neurOptimRevLearn_low_s002,1,0.75153290014714,123,0,1,2,1,t1,0.5
neurOptimRevLearn_low_s002,1,1.66976809990592,123,1,0,2,2,t2,0.5
neurOptimRevLearn_low_s002,1,0.377539400011301,124,1,1,2,0,t0,0.5
neurOptimRevLearn_low_s002,1,0.367109999991953,124,1,1,2,1,t1,0.5
neurOptimRevLearn_low_s002,1,0.625468699960038,124,1,1,2,2,t2,0.5
neurOptimRevLearn_low_s002,1,0.480404599802569,125,0,0,2,0,t0,0.5
neurOptimRevLearn_low_s002,1,0.359613100066781,125,1,1,2,1,t1,0.5
neurOptimRevLearn_low_s002,1,3.30462559987791,125,0,0,2,2,t2,0.5
neurOptimRevLearn_low_s002,1,0.23039190005511,126,0,0,2,0,t0,0.5
neurOptimRevLearn_low_s002,1,1.35902599990368,126,1,1,2,1,t1,0.5
neurOptimRevLearn_low_s002,1,2.46067050006241,126,0,0,2,2,t2,0.5
neurOptimRevLearn_low_s002,1,0.258847699966282,127,1,1,2,0,t0,0.5
neurOptimRevLearn_low_s002,1,1.4685105998069,127,0,1,2,1,t1,0.5
neurOptimRevLearn_low_s002,1,0.827218100195751,127,1,0,2,2,t2,0.5
neurOptimRevLearn_low_s002,1,0.389235300011933,128,1,1,2,0,t0,0.5
neurOptimRevLearn_low_s002,1,0.368371999822557,128,0,0,2,1,t1,0.5
neurOptimRevLearn_low_s002,1,1.31926569994539,128,1,1,2,2,t2,0.5
neurOptimRevLearn_low_s002,1,0.782863300060853,129,1,0,2,0,t0,0.5
neurOptimRevLearn_low_s002,1,0.293906999751925,129,0,0,2,1,t1,0.5
neurOptimRevLearn_low_s002,1,1.94962930004112,129,0,0,2,2,t2,0.5
neurOptimRevLearn_low_s002,1,1.00472710002214,130,1,0,2,0,t0,0.5
neurOptimRevLearn_low_s002,1,0.604055600240827,130,1,1,2,1,t1,0.5
neurOptimRevLearn_low_s002,1,2.37765299994499,130,0,0,2,2,t2,0.5
neurOptimRevLearn_low_s002,1,0.662064099917188,131,0,0,2,0,t0,0.5
neurOptimRevLearn_low_s002,1,0.56161729991436,131,1,1,2,1,t1,0.5
neurOptimRevLearn_low_s002,1,1.79801329993643,131,1,1,2,2,t2,0.5
neurOptimRevLearn_low_s002,1,0.24552040011622,132,1,1,2,0,t0,0.5
neurOptimRevLearn_low_s002,1,0.785268199630082,132,0,0,2,1,t1,0.5
neurOptimRevLearn_low_s002,1,1.06152549991384,132,0,0,2,2,t2,0.5
neurOptimRevLearn_low_s002,1,0.566236200043932,133,0,0,2,0,t0,0.5
neurOptimRevLearn_low_s002,1,0.290606699883938,133,1,1,2,1,t1,0.5
neurOptimRevLearn_low_s002,1,0.429283599834889,133,1,1,2,2,t2,0.5
neurOptimRevLearn_low_s002,1,0.341064299922437,134,0,0,2,0,t0,0.5
neurOptimRevLearn_low_s002,1,0.483523100614548,134,0,0,2,1,t1,0.5
neurOptimRevLearn_low_s002,1,0.961266899947077,134,0,0,2,2,t2,0.5
neurOptimRevLearn_low_s002,1,0.291331500047818,135,0,0,2,0,t0,0.5
neurOptimRevLearn_low_s002,1,0.357955399900675,135,1,1,2,1,t1,0.5
neurOptimRevLearn_low_s002,1,0.229191899998114,135,0,0,2,2,t2,0.5
neurOptimRevLearn_low_s002,1,1.83886110014282,136,1,1,2,0,t0,0.5
neurOptimRevLearn_low_s002,1,0.74693850055337,136,0,0,2,1,t1,0.5
neurOptimRevLearn_low_s002,1,0.46755739999935,136,0,0,2,2,t2,0.5
neurOptimRevLearn_low_s002,1,0.386235999874771,137,1,1,2,0,t0,0.5
neurOptimRevLearn_low_s002,1,0.263520600274205,137,1,1,2,1,t1,0.5
neurOptimRevLearn_low_s002,1,0.210087900049984,137,1,1,2,2,t2,0.5
neurOptimRevLearn_low_s002,1,0.367529999930412,138,0,0,2,0,t0,0.5
neurOptimRevLearn_low_s002,1,0.606292400509119,138,0,0,2,1,t1,0.5
neurOptimRevLearn_low_s002,1,0.281113800127059,138,0,0,2,2,t2,0.5
neurOptimRevLearn_low_s002,1,0.622728300280869,139,0,0,2,0,t0,0.5
neurOptimRevLearn_low_s002,1,0.287124799564481,139,1,1,2,1,t1,0.5
neurOptimRevLearn_low_s002,1,0.851014000363648,139,0,0,2,2,t2,0.5
neurOptimRevLearn_low_s002,1,1.05646090000005,140,0,0,2,0,t0,0.5
neurOptimRevLearn_low_s002,1,0.475764599628747,140,0,0,2,1,t1,0.5
neurOptimRevLearn_low_s002,1,0.630296099931002,140,0,0,2,2,t2,0.5
neurOptimRevLearn_low_s002,1,0.999788699904457,141,0,1,2,0,t0,0.5
neurOptimRevLearn_low_s002,1,0.252903000451624,141,1,1,2,1,t1,0.5
neurOptimRevLearn_low_s002,1,0.658414100005757,141,1,1,2,2,t2,0.5
neurOptimRevLearn_low_s002,1,0.216712399851531,142,1,1,2,0,t0,0.5
neurOptimRevLearn_low_s002,1,0.410462599247694,142,0,0,2,1,t1,0.5
neurOptimRevLearn_low_s002,1,0.708895299583674,142,1,1,2,2,t2,0.5
neurOptimRevLearn_low_s002,1,0.668119700159878,143,1,1,2,0,t0,0.5
neurOptimRevLearn_low_s002,1,0.247290999628603,143,1,1,2,1,t1,0.5
neurOptimRevLearn_low_s002,1,0.566576799377799,143,0,0,2,2,t2,0.5
neurOptimRevLearn_low_s002,1,0.443458000198007,144,1,1,2,0,t0,0.5
neurOptimRevLearn_low_s002,1,0.317185600288212,144,1,1,2,1,t1,0.5
neurOptimRevLearn_low_s002,1,0.944276799913496,144,1,1,2,2,t2,0.5
neurOptimRevLearn_low_s002,1,0.573557697236538,145,1,0,2,0,t0,0.5
neurOptimRevLearn_low_s002,1,0.640457600355148,145,1,1,2,1,t1,0.5
neurOptimRevLearn_low_s002,1,0.675625300034881,145,1,1,2,2,t2,0.5
neurOptimRevLearn_low_s002,1,0.515065999701619,146,1,1,2,0,t0,0.5
neurOptimRevLearn_low_s002,1,0.453729800879955,146,0,1,2,1,t1,0.5
neurOptimRevLearn_low_s002,1,0.833140499889851,146,1,0,2,2,t2,0.5
neurOptimRevLearn_low_s002,1,0.235665499931201,147,0,0,2,0,t0,0.5
neurOptimRevLearn_low_s002,1,0.275650599971414,147,1,1,2,1,t1,0.5
neurOptimRevLearn_low_s002,1,0.469454299891368,147,0,0,2,2,t2,0.5
neurOptimRevLearn_low_s002,1,0.35410359990783,148,1,1,2,0,t0,0.5
neurOptimRevLearn_low_s002,1,0.973013599868864,148,0,0,2,1,t1,0.5
neurOptimRevLearn_low_s002,1,0.711712299846113,148,0,0,2,2,t2,0.5
neurOptimRevLearn_low_s002,1,0.392216600012034,149,0,0,2,0,t0,0.5
neurOptimRevLearn_low_s002,1,0.671742099802941,149,0,0,2,1,t1,0.5
neurOptimRevLearn_low_s002,1,0.77157530002296,149,1,1,2,2,t2,0.5
neurOptimRevLearn_low_s002,1,0.680103000253439,150,0,0,2,0,t0,0.5
neurOptimRevLearn_low_s002,1,1.2646751999855,150,0,0,2,1,t1,0.5
neurOptimRevLearn_low_s002,1,0.835713300155476,150,0,0,2,2,t2,0.5
neurOptimRevLearn_low_s002,1,0.500548199983314,151,1,1,2,0,t0,0.5
neurOptimRevLearn_low_s002,1,0.644495799206197,151,1,1,2,1,t1,0.5
neurOptimRevLearn_low_s002,1,0.220629600109532,151,0,0,2,2,t2,0.5
neurOptimRevLearn_low_s002,1,0.268942299997434,152,1,1,2,0,t0,0.5
neurOptimRevLearn_low_s002,1,0.700761300511658,152,0,0,2,1,t1,0.5
neurOptimRevLearn_low_s002,1,0.448532700072974,152,1,0,2,2,t2,0.5
neurOptimRevLearn_low_s002,1,0.43823969992809,153,1,0,2,0,t0,0.5
neurOptimRevLearn_low_s002,1,0.474714899901301,153,0,0,2,1,t1,0.5
neurOptimRevLearn_low_s002,1,0.652018900029361,153,0,0,2,2,t2,0.5
neurOptimRevLearn_low_s002,1,0.589240500004962,154,0,1,2,0,t0,0.5
neurOptimRevLearn_low_s002,1,1.07777030020952,154,0,0,2,1,t1,0.5
neurOptimRevLearn_low_s002,1,1.05575129995123,154,1,1,2,2,t2,0.5
neurOptimRevLearn_low_s002,1,0.240059500094503,155,1,0,2,0,t0,0.5
neurOptimRevLearn_low_s002,1,0.252459200099111,155,1,1,2,1,t1,0.5
neurOptimRevLearn_low_s002,1,1.16240480006672,155,1,1,2,2,t2,0.5
neurOptimRevLearn_low_s002,1,0.505684999981895,156,0,0,2,0,t0,0.5
neurOptimRevLearn_low_s002,1,0.552183600142598,156,0,0,2,1,t1,0.5
neurOptimRevLearn_low_s002,1,0.981413299916312,156,1,1,2,2,t2,0.5
neurOptimRevLearn_low_s002,1,0.454715100117028,157,0,0,2,0,t0,0.5
neurOptimRevLearn_low_s002,1,0.703897800005507,157,0,1,2,1,t1,0.5
neurOptimRevLearn_low_s002,1,1.75782689987682,157,1,1,2,2,t2,0.5
neurOptimRevLearn_low_s002,1,0.394700000062585,158,0,0,2,0,t0,0.5
neurOptimRevLearn_low_s002,1,0.398289400152862,158,0,0,2,1,t1,0.5
neurOptimRevLearn_low_s002,1,0.869145400123671,158,0,0,2,2,t2,0.5
neurOptimRevLearn_low_s002,1,0.31561839999631,159,1,1,2,0,t0,0.5
neurOptimRevLearn_low_s002,1,0.417385499924421,159,0,0,2,1,t1,0.5
neurOptimRevLearn_low_s002,1,0.437035500071943,159,0,0,2,2,t2,0.5
neurOptimRevLearn_low_s002,1,0.512040399946272,160,1,1,2,0,t0,0.5
neurOptimRevLearn_low_s002,1,0.466793099418283,160,1,1,2,1,t1,0.5
neurOptimRevLearn_low_s002,1,0.746964599937201,160,1,1,2,2,t2,0.5
neurOptimRevLearn_low_s002,1,0.893687200034037,161,0,1,2,0,t0,0.5
neurOptimRevLearn_low_s002,1,2.9162467001006,161,0,1,2,1,t1,0.5
neurOptimRevLearn_low_s002,1,2.31742079998367,161,0,1,2,2,t2,0.5
neurOptimRevLearn_low_s002,1,1.18341739987955,162,0,1,2,0,t0,0.5
neurOptimRevLearn_low_s002,1,0.773044800385833,162,0,1,2,1,t1,0.5
neurOptimRevLearn_low_s002,1,0.313096200115979,162,1,0,2,2,t2,0.5
neurOptimRevLearn_low_s002,1,1.17147110006772,163,0,1,2,0,t0,0.5
neurOptimRevLearn_low_s002,1,0.690087500028312,163,1,0,2,1,t1,0.5
neurOptimRevLearn_low_s002,1,0.904989199945703,163,1,0,2,2,t2,0.5
neurOptimRevLearn_low_s002,1,0.562418600078672,164,0,1,2,0,t0,0.5
neurOptimRevLearn_low_s002,1,2.0143956001848,164,1,0,2,1,t1,0.5
neurOptimRevLearn_low_s002,1,2.899700100068,164,1,0,2,2,t2,0.5
neurOptimRevLearn_low_s002,1,0.584639400010929,165,0,1,2,0,t0,0.5
neurOptimRevLearn_low_s002,1,0.538181200623512,165,0,1,2,1,t1,0.5
neurOptimRevLearn_low_s002,1,0.760221200063825,165,0,1,2,2,t2,0.5
neurOptimRevLearn_low_s002,1,1.12872379994951,166,1,0,2,0,t0,0.5
neurOptimRevLearn_low_s002,1,0.313505000434816,166,0,1,2,1,t1,0.5
neurOptimRevLearn_low_s002,1,0.558744800044224,166,1,0,2,2,t2,0.5
neurOptimRevLearn_low_s002,1,0.894305099966005,167,0,1,2,0,t0,0.5
neurOptimRevLearn_low_s002,1,0.359880799427629,167,0,1,2,1,t1,0.5
neurOptimRevLearn_low_s002,1,0.663780999835581,167,0,1,2,2,t2,0.5
neurOptimRevLearn_low_s002,1,0.528891799971461,168,0,1,2,0,t0,0.5
neurOptimRevLearn_low_s002,1,0.521214200183749,168,0,1,2,1,t1,0.5
neurOptimRevLearn_low_s002,1,0.506500700023025,168,1,0,2,2,t2,0.5
neurOptimRevLearn_low_s002,1,0.483132899971679,169,0,1,2,0,t0,0.5
neurOptimRevLearn_low_s002,1,1.28976489976048,169,1,0,2,1,t1,0.5
neurOptimRevLearn_low_s002,1,1.22264789999463,169,0,1,2,2,t2,0.5
neurOptimRevLearn_low_s002,1,0.559736599912867,170,0,1,2,0,t0,0.5
neurOptimRevLearn_low_s002,1,0.575951399281621,170,1,0,2,1,t1,0.5
neurOptimRevLearn_low_s002,1,0.441123900003731,170,0,1,2,2,t2,0.5
neurOptimRevLearn_low_s002,1,0.653527799993753,171,1,0,2,0,t0,0.5
neurOptimRevLearn_low_s002,1,1.66055740043521,171,1,0,2,1,t1,0.5
neurOptimRevLearn_low_s002,1,0.412238100077957,171,0,1,2,2,t2,0.5
neurOptimRevLearn_low_s002,1,1.24145880015567,172,1,1,2,0,t0,0.5
neurOptimRevLearn_low_s002,1,1.08017279952765,172,1,0,2,1,t1,0.5
neurOptimRevLearn_low_s002,1,0.315926000010222,172,1,1,2,2,t2,0.5
neurOptimRevLearn_low_s002,1,1.4693082999438,173,1,0,2,0,t0,0.5
neurOptimRevLearn_low_s002,1,0.783589700236917,173,1,0,2,1,t1,0.5
neurOptimRevLearn_low_s002,1,0.97380689997226,173,1,0,2,2,t2,0.5
neurOptimRevLearn_low_s002,1,1.55413160007447,174,0,1,2,0,t0,0.5
neurOptimRevLearn_low_s002,1,0.720446200110018,174,0,1,2,1,t1,0.5
neurOptimRevLearn_low_s002,1,1.01750920014456,174,1,0,2,2,t2,0.5
neurOptimRevLearn_low_s002,1,0.312370100058615,175,0,1,2,0,t0,0.5
neurOptimRevLearn_low_s002,1,1.01808310020715,175,0,1,2,1,t1,0.5
neurOptimRevLearn_low_s002,1,0.601096699945629,175,1,0,2,2,t2,0.5
neurOptimRevLearn_low_s002,1,0.403233100194484,176,0,1,2,0,t0,0.5
neurOptimRevLearn_low_s002,1,0.27177570015192,176,0,1,2,1,t1,0.5
neurOptimRevLearn_low_s002,1,0.924248100025579,176,0,1,2,2,t2,0.5
neurOptimRevLearn_low_s002,1,0.390165700111538,177,0,1,2,0,t0,0.5
neurOptimRevLearn_low_s002,1,0.339862199500203,177,0,1,2,1,t1,0.5
neurOptimRevLearn_low_s002,1,0.453409800073132,177,1,0,2,2,t2,0.5
neurOptimRevLearn_low_s002,1,0.451784500153735,178,1,0,2,0,t0,0.5
neurOptimRevLearn_low_s002,1,0.3360068006441,178,0,1,2,1,t1,0.5
neurOptimRevLearn_low_s002,1,1.04791179997846,178,0,1,2,2,t2,0.5
neurOptimRevLearn_low_s002,1,1.0382509001065,179,1,1,2,0,t0,0.5
neurOptimRevLearn_low_s002,1,0.281830100342631,179,0,1,2,1,t1,0.5
neurOptimRevLearn_low_s002,1,0.829384899931029,179,1,1,2,2,t2,0.5
neurOptimRevLearn_low_s002,1,1.25403920002282,180,0,0,2,0,t0,0.5
neurOptimRevLearn_low_s002,1,0.728218199685216,180,0,0,2,1,t1,0.5
neurOptimRevLearn_low_s002,1,0.991328400094062,180,0,0,2,2,t2,0.5
neurOptimRevLearn_low_s002,1,0.366240900009871,181,0,1,2,0,t0,0.5
neurOptimRevLearn_low_s002,1,0.937857399694622,181,0,1,2,1,t1,0.5
neurOptimRevLearn_low_s002,1,0.265038900077343,181,1,0,2,2,t2,0.5
neurOptimRevLearn_low_s002,1,0.414527699816972,182,0,1,2,0,t0,0.5
neurOptimRevLearn_low_s002,1,0.376545500010252,182,1,0,2,1,t1,0.5
neurOptimRevLearn_low_s002,1,0.691949599888176,182,1,0,2,2,t2,0.5
neurOptimRevLearn_low_s002,1,0.680100600002334,183,0,1,2,0,t0,0.5
neurOptimRevLearn_low_s002,1,0.234231099486351,183,0,1,2,1,t1,0.5
neurOptimRevLearn_low_s002,1,0.510500800097361,183,0,1,2,2,t2,0.5
neurOptimRevLearn_low_s002,1,0.872988499933854,184,1,0,2,0,t0,0.5
neurOptimRevLearn_low_s002,1,0.468954800628126,184,0,1,2,1,t1,0.5
neurOptimRevLearn_low_s002,1,0.879257701337338,184,0,1,2,2,t2,0.5
neurOptimRevLearn_low_s002,1,0.714776000007987,185,0,1,2,0,t0,0.5
neurOptimRevLearn_low_s002,1,1.77496849978343,185,1,0,2,1,t1,0.5
neurOptimRevLearn_low_s002,1,0.372603500029072,185,1,0,2,2,t2,0.5
neurOptimRevLearn_low_s002,1,0.313434399897233,186,0,0,2,0,t0,0.5
neurOptimRevLearn_low_s002,1,0.461034700274468,186,0,1,2,1,t1,0.5
neurOptimRevLearn_low_s002,1,0.879591600038111,186,1,1,2,2,t2,0.5
neurOptimRevLearn_low_s002,1,0.473926200065762,187,1,0,2,0,t0,0.5
neurOptimRevLearn_low_s002,1,0.567598699592054,187,0,0,2,1,t1,0.5
neurOptimRevLearn_low_s002,1,0.69715700019151,187,1,0,2,2,t2,0.5
neurOptimRevLearn_low_s002,1,0.663916300050914,188,0,0,2,0,t0,0.5
neurOptimRevLearn_low_s002,1,0.981931800022721,188,0,1,2,1,t1,0.5
neurOptimRevLearn_low_s002,1,0.514692700002343,188,1,1,2,2,t2,0.5
neurOptimRevLearn_low_s002,1,0.73418949986808,189,0,1,2,0,t0,0.5
neurOptimRevLearn_low_s002,1,1.33511609956622,189,0,1,2,1,t1,0.5
neurOptimRevLearn_low_s002,1,0.644950899994001,189,0,1,2,2,t2,0.5
neurOptimRevLearn_low_s002,1,0.499696299433708,190,0,1,2,0,t0,0.5
neurOptimRevLearn_low_s002,1,1.26061870064586,190,1,0,2,1,t1,0.5
neurOptimRevLearn_low_s002,1,0.622327599907294,190,0,1,2,2,t2,0.5
neurOptimRevLearn_low_s002,1,0.768205353990197,191,1,0,2,0,t0,0.5
neurOptimRevLearn_low_s002,1,1.48874309938401,191,1,0,2,1,t1,0.5
neurOptimRevLearn_low_s002,1,0.306899399962276,191,0,1,2,2,t2,0.5
neurOptimRevLearn_low_s002,1,0.63895870000124,192,0,1,2,0,t0,0.5
neurOptimRevLearn_low_s002,1,1.44762159977108,192,0,1,2,1,t1,0.5
