response,rt,trial,feedback,is_neuroptimal,block,q_init,split_by,time,subj_idx
0,0.749461400089786,1,1,1,0,0.5,2,0,1
0,0.568735599983484,2,1,1,0,0.5,2,0,1
0,0.703596499981359,3,1,1,0,0.5,2,0,1
0,0.63882019999437,4,1,1,0,0.5,2,0,1
0,0.613686600001529,5,1,1,0,0.5,2,0,1
0,0.539824599865824,6,1,1,0,0.5,2,0,1
0,0.569759499980137,7,1,1,0,0.5,2,0,1
0,0.56675780005753,8,1,1,0,0.5,2,0,1
0,0.525300800101832,9,1,1,0,0.5,2,0,1
0,0.776395800057799,10,1,1,0,0.5,2,0,1
0,0.617402700008825,11,1,1,0,0.5,2,0,1
0,0.687659899936989,12,1,1,0,0.5,2,0,1
0,0.70308390003629,13,1,1,0,0.5,2,0,1
0,0.590134500060231,14,1,1,0,0.5,2,0,1
0,0.568525200011209,15,1,1,0,0.5,2,0,1
0,0.66533079999499,16,1,1,0,0.5,2,0,1
0,0.712802499998361,17,1,1,0,0.5,2,0,1
0,0.716630399925634,18,1,1,0,0.5,2,0,1
0,0.769264800008386,19,1,1,0,0.5,2,0,1
0,0.521265799878165,20,1,1,0,0.5,2,0,1
0,0.514494200004265,21,1,1,0,0.5,2,0,1
0,0.693970100022852,22,1,1,0,0.5,2,0,1
0,0.476221499964595,23,1,1,0,0.5,2,0,1
0,0.616216300055385,24,1,1,0,0.5,2,0,1
0,0.679790900088847,25,1,1,0,0.5,2,0,1
0,0.560127899982035,26,1,1,0,0.5,2,0,1
0,0.72027530008927,27,1,1,0,0.5,2,0,1
0,1.36197830014862,28,0,1,0,0.5,2,0,1
0,0.955180899938568,29,1,1,0,0.5,2,0,1
0,0.71377499983646,30,1,1,0,0.5,2,0,1
0,0.510154800023884,31,1,1,0,0.5,2,0,1
0,0.447385500185192,32,1,1,0,0.5,2,0,1
0,0.586193299852312,33,1,1,0,0.5,2,0,1
0,0.715922599891201,34,1,1,0,0.5,2,0,1
0,0.633153599919751,35,1,1,0,0.5,2,0,1
0,0.779590899823234,36,0,1,0,0.5,2,0,1
1,0.937315999995917,37,0,1,0,0.5,2,0,1
0,0.478314599953592,38,1,1,0,0.5,2,0,1
0,0.747265599900857,39,1,1,0,0.5,2,0,1
0,1.45976109988987,40,1,1,0,0.5,2,0,1
0,0.587375300005078,41,0,1,0,0.5,2,0,1
1,0.662897299975157,42,1,1,0,0.5,2,0,1
0,0.823204200016335,43,0,1,0,0.5,2,0,1
1,0.790094399824739,44,1,1,0,0.5,2,0,1
1,0.615273399977014,45,1,1,0,0.5,2,0,1
1,1.16379469982348,46,1,1,0,0.5,2,0,1
1,0.653501299908385,47,1,1,0,0.5,2,0,1
1,0.604579899925739,48,1,1,0,0.5,2,0,1
1,0.672893500188366,49,0,1,0,0.5,2,0,1
0,0.452064100187272,50,0,1,0,0.5,2,0,1
1,0.718905000016093,51,1,1,0,0.5,2,0,1
1,0.832025499781594,52,1,1,0,0.5,2,0,1
1,0.711535099893808,53,1,1,0,0.5,2,0,1
1,0.778298599878326,54,1,1,0,0.5,2,0,1
1,0.789552200119942,55,1,1,0,0.5,2,0,1
1,0.971923900069669,56,0,1,0,0.5,2,0,1
0,1.50412159995176,57,0,1,0,0.5,2,0,1
1,0.681289500091225,58,1,1,0,0.5,2,0,1
1,0.549268200062215,59,1,1,0,0.5,2,0,1
0,0.845987899927422,60,0,1,0,0.5,2,0,1
1,1.08544679987244,61,1,1,0,0.5,2,0,1
1,1.92207950004376,62,0,1,0,0.5,2,0,1
0,1.00930229993537,63,0,1,0,0.5,2,0,1
0,1.25603549997322,64,0,1,0,0.5,2,0,1
1,1.22931079985574,65,1,1,0,0.5,2,0,1
1,1.05601139995269,66,1,1,0,0.5,2,0,1
1,0.731780200032517,67,1,1,0,0.5,2,0,1
1,2.44646990019828,68,1,1,0,0.5,2,0,1
1,0.625619299942628,69,1,1,0,0.5,2,0,1
1,0.636131100123748,70,1,1,0,0.5,2,0,1
1,0.750883099855855,71,1,1,0,0.5,2,0,1
1,0.801164200063795,72,1,1,0,0.5,2,0,1
1,0.62844550004229,73,1,1,0,0.5,2,0,1
1,0.74919840018265,74,1,1,0,0.5,2,0,1
1,0.580078500090167,75,1,1,0,0.5,2,0,1
1,0.558897600043565,76,1,1,0,0.5,2,0,1
1,1.31217409996316,77,1,1,0,0.5,2,0,1
1,0.983244700124487,78,1,1,0,0.5,2,0,1
0,1.23851870000362,79,0,1,0,0.5,2,0,1
1,1.60575069999322,80,0,1,0,0.5,2,0,1
0,0.964392699999735,81,1,1,0,0.5,2,0,1
1,1.23312769993208,82,0,1,0,0.5,2,0,1
1,0.649947799975053,83,0,1,0,0.5,2,0,1
0,0.462832699995488,84,1,1,0,0.5,2,0,1
0,0.550049700075761,85,0,1,0,0.5,2,0,1
0,1.52929250011221,86,1,1,0,0.5,2,0,1
0,0.844973600003868,87,1,1,0,0.5,2,0,1
0,0.623180999886245,88,0,1,0,0.5,2,0,1
0,1.78469659993425,89,1,1,0,0.5,2,0,1
0,0.891812300076708,90,1,1,0,0.5,2,0,1
0,1.254225499928,91,1,1,0,0.5,2,0,1
0,0.536836400162429,92,1,1,0,0.5,2,0,1
0,0.621504799928516,93,1,1,0,0.5,2,0,1
0,0.640793900005519,94,1,1,0,0.5,2,0,1
0,0.689504500012845,95,1,1,0,0.5,2,0,1
0,1.04598539997824,96,1,1,0,0.5,2,0,1
0,0.530511499848217,97,1,1,0,0.5,2,0,1
0,0.487660099985078,98,1,1,0,0.5,2,0,1
0,0.583925199927762,99,1,1,0,0.5,2,0,1
0,0.90645380015485,100,1,1,0,0.5,2,0,1
0,0.66202859999612,101,1,1,0,0.5,2,0,1
0,0.734754400094971,102,1,1,0,0.5,2,0,1
0,1.39498819992878,103,1,1,0,0.5,2,0,1
0,0.561060499865562,104,1,1,0,0.5,2,0,1
0,0.585003599990159,105,1,1,0,0.5,2,0,1
0,0.537815799936652,106,1,1,0,0.5,2,0,1
0,0.61226120009087,107,1,1,0,0.5,2,0,1
0,0.541296899784356,108,1,1,0,0.5,2,0,1
0,0.66556639992632,109,1,1,0,0.5,2,0,1
0,0.677467300090939,110,0,1,0,0.5,2,0,1
0,0.559866900090128,111,1,1,0,0.5,2,0,1
0,0.514385499991477,112,1,1,0,0.5,2,0,1
0,0.62728749983944,113,1,1,0,0.5,2,0,1
0,0.677480800077319,114,1,1,0,0.5,2,0,1
0,0.726981800049543,115,1,1,0,0.5,2,0,1
0,0.514070600038394,116,1,1,0,0.5,2,0,1
0,0.769415100105107,117,1,1,0,0.5,2,0,1
0,0.629542199894786,118,1,1,0,0.5,2,0,1
0,0.584627300035209,119,1,1,0,0.5,2,0,1
0,0.633764799917117,120,1,1,0,0.5,2,0,1
0,0.642929800087586,121,0,1,0,0.5,2,0,1
1,0.643489399924874,122,1,1,0,0.5,2,0,1
0,0.823417200008407,123,0,1,0,0.5,2,0,1
1,0.672931900015101,124,1,1,0,0.5,2,0,1
1,0.581954200053588,125,1,1,0,0.5,2,0,1
1,1.30925299995579,126,1,1,0,0.5,2,0,1
1,0.494496600003913,127,1,1,0,0.5,2,0,1
1,0.502132400171831,128,1,1,0,0.5,2,0,1
1,1.83920580008999,129,0,1,0,0.5,2,0,1
0,0.459436200093478,130,1,1,0,0.5,2,0,1
0,0.538176900008693,131,0,1,0,0.5,2,0,1
1,0.778829699847847,132,1,1,0,0.5,2,0,1
0,1.18899989989586,133,0,1,0,0.5,2,0,1
1,0.543650500010699,134,1,1,0,0.5,2,0,1
0,1.17013809992932,135,0,1,0,0.5,2,0,1
1,0.443429100094363,136,1,1,0,0.5,2,0,1
1,0.605669399956241,137,1,1,0,0.5,2,0,1
0,1.85073640011251,138,0,1,0,0.5,2,0,1
1,0.478045299882069,139,1,1,0,0.5,2,0,1
1,0.453200600109994,140,1,1,0,0.5,2,0,1
1,0.569251500070095,141,0,1,0,0.5,2,0,1
0,0.428749699844047,142,0,1,0,0.5,2,0,1
1,0.626309299841523,143,1,1,0,0.5,2,0,1
1,0.599694200092927,144,1,1,0,0.5,2,0,1
0,1.13499389984645,145,0,1,0,0.5,2,0,1
1,0.494478599866852,146,1,1,0,0.5,2,0,1
1,0.451280599925667,147,1,1,0,0.5,2,0,1
0,1.36331939999945,148,0,1,0,0.5,2,0,1
1,1.8803149999585,149,1,1,0,0.5,2,0,1
1,0.500848400173709,150,1,1,0,0.5,2,0,1
1,0.493805299978703,151,1,1,0,0.5,2,0,1
1,0.605769800022245,152,1,1,0,0.5,2,0,1
1,0.827660799957812,153,0,1,0,0.5,2,0,1
1,0.949929399881512,154,0,1,0,0.5,2,0,1
0,0.539062399882823,155,1,1,0,0.5,2,0,1
0,0.693983899895102,156,0,1,0,0.5,2,0,1
0,0.818458199966699,157,0,1,0,0.5,2,0,1
1,0.522115299943835,158,1,1,0,0.5,2,0,1
1,1.45911479997449,159,1,1,0,0.5,2,0,1
1,0.785310599952936,160,1,1,0,0.5,2,0,1
0,0.796051200013608,1,1,1,1,0.5,4,0,1
0,0.533256600145251,2,1,1,1,0.5,4,0,1
1,1.45389880007133,3,0,1,1,0.5,4,0,1
0,0.96148409997113,4,1,1,1,0.5,4,0,1
0,0.87894230009988,5,1,1,1,0.5,4,0,1
0,0.775721000041813,6,1,1,1,0.5,4,0,1
0,0.765927499858663,7,1,1,1,0.5,4,0,1
1,2.23268739995547,8,0,1,1,0.5,4,0,1
1,1.40057070017792,9,0,1,1,0.5,4,0,1
0,0.709912500111386,10,1,1,1,0.5,4,0,1
0,0.507697799941525,11,1,1,1,0.5,4,0,1
1,0.967757199890912,12,1,1,1,0.5,4,0,1
0,0.665901799919084,13,1,1,1,0.5,4,0,1
0,0.665053599979729,14,1,1,1,0.5,4,0,1
1,1.22348669986241,15,0,1,1,0.5,4,0,1
0,0.700972200138494,16,1,1,1,0.5,4,0,1
0,0.821040199836716,17,1,1,1,0.5,4,0,1
0,0.697187299840152,18,1,1,1,0.5,4,0,1
0,0.597625199938193,19,0,1,1,0.5,4,0,1
0,1.01177540002391,20,0,1,1,0.5,4,0,1
0,0.602586799999699,21,1,1,1,0.5,4,0,1
0,0.825806300155819,22,1,1,1,0.5,4,0,1
0,1.17888129991479,23,1,1,1,0.5,4,0,1
0,0.626284600002691,24,1,1,1,0.5,4,0,1
0,0.8126475000754,25,1,1,1,0.5,4,0,1
0,0.771445499965921,26,0,1,1,0.5,4,0,1
1,1.35690220003016,27,0,1,1,0.5,4,0,1
0,0.798576800152659,28,0,1,1,0.5,4,0,1
0,0.882953299907967,29,1,1,1,0.5,4,0,1
0,0.697551099816337,30,1,1,1,0.5,4,0,1
1,0.780813900055364,31,0,1,1,0.5,4,0,1
0,0.753834299976006,32,1,1,1,0.5,4,0,1
0,1.13041210011579,33,1,1,1,0.5,4,0,1
0,0.608774700202048,34,1,1,1,0.5,4,0,1
0,0.531963800080121,35,1,1,1,0.5,4,0,1
0,0.617007799912244,36,1,1,1,0.5,4,0,1
0,0.518592099891976,37,0,1,1,0.5,4,0,1
1,0.590029199840501,38,0,1,1,0.5,4,0,1
0,1.1037071000319,39,1,1,1,0.5,4,0,1
0,0.507831000024453,40,1,1,1,0.5,4,0,1
0,0.795697499997914,41,0,1,1,0.5,4,0,1
1,0.577392200008035,42,1,1,1,0.5,4,0,1
1,0.479988300008699,43,1,1,1,0.5,4,0,1
1,0.506344699999318,44,1,1,1,0.5,4,0,1
1,0.469887599814683,45,1,1,1,0.5,4,0,1
1,0.922708499943838,46,1,1,1,0.5,4,0,1
1,0.655015599913895,47,1,1,1,0.5,4,0,1
1,0.643604899989441,48,1,1,1,0.5,4,0,1
1,0.432705899933353,49,1,1,1,0.5,4,0,1
1,0.703002199996263,50,1,1,1,0.5,4,0,1
1,0.690736399963498,51,1,1,1,0.5,4,0,1
1,0.669377500191331,52,1,1,1,0.5,4,0,1
1,0.522332299966365,53,1,1,1,0.5,4,0,1
1,0.73839610000141,54,1,1,1,0.5,4,0,1
1,0.466881500091404,55,1,1,1,0.5,4,0,1
1,0.686403399799019,56,1,1,1,0.5,4,0,1
1,0.627099999925122,57,1,1,1,0.5,4,0,1
1,0.523329900112003,58,1,1,1,0.5,4,0,1
1,0.526961300056428,59,1,1,1,0.5,4,0,1
1,0.47639529989101,60,1,1,1,0.5,4,0,1
1,0.728803799953312,61,1,1,1,0.5,4,0,1
1,0.463775800075382,62,1,1,1,0.5,4,0,1
1,0.679830299923196,63,1,1,1,0.5,4,0,1
1,0.62489979993552,64,1,1,1,0.5,4,0,1
1,0.479656500043348,65,1,1,1,0.5,4,0,1
1,0.61425460013561,66,1,1,1,0.5,4,0,1
1,0.536790800048038,67,1,1,1,0.5,4,0,1
1,0.556896599940956,68,1,1,1,0.5,4,0,1
1,0.5348482998088,69,1,1,1,0.5,4,0,1
1,0.587750500068069,70,1,1,1,0.5,4,0,1
1,0.542257099878043,71,1,1,1,0.5,4,0,1
1,0.454995499923825,72,1,1,1,0.5,4,0,1
1,0.82973669981584,73,1,1,1,0.5,4,0,1
1,0.691846099914983,74,0,1,1,0.5,4,0,1
1,0.72559510008432,75,1,1,1,0.5,4,0,1
0,0.563444999977946,76,0,1,1,0.5,4,0,1
1,0.450025700032711,77,1,1,1,0.5,4,0,1
1,0.543088899925351,78,1,1,1,0.5,4,0,1
1,0.861963100032881,79,1,1,1,0.5,4,0,1
1,0.67114740004763,80,0,1,1,0.5,4,0,1
0,1.39850690006278,81,1,1,1,0.5,4,0,1
0,0.60089879995212,82,1,1,1,0.5,4,0,1
0,2.41566419997253,83,1,1,1,0.5,4,0,1
0,0.690118400147185,84,1,1,1,0.5,4,0,1
0,0.940352800069377,85,1,1,1,0.5,4,0,1
1,0.64543589996174,86,0,1,1,0.5,4,0,1
0,1.31774430000223,87,1,1,1,0.5,4,0,1
0,0.754980099853128,88,1,1,1,0.5,4,0,1
0,1.37207829998806,89,1,1,1,0.5,4,0,1
0,0.740895699942485,90,1,1,1,0.5,4,0,1
0,0.724297699984163,91,1,1,1,0.5,4,0,1
0,0.775550300022587,92,1,1,1,0.5,4,0,1
0,0.866060900036246,93,1,1,1,0.5,4,0,1
0,0.75745390006341,94,0,1,1,0.5,4,0,1
0,0.77144889999181,95,1,1,1,0.5,4,0,1
0,1.01034480007365,96,1,1,1,0.5,4,0,1
0,0.615699800197035,97,1,1,1,0.5,4,0,1
0,0.538339299848303,98,1,1,1,0.5,4,0,1
1,1.79906619992107,99,0,1,1,0.5,4,0,1
1,1.28787617867382,100,0,1,1,0.5,4,0,1
1,2.20411900011823,101,0,1,1,0.5,4,0,1
1,2.70030090003274,102,0,1,1,0.5,4,0,1
1,0.865648099919781,103,0,1,1,0.5,4,0,1
1,0.861093499930576,104,0,1,1,0.5,4,0,1
0,0.606076800031588,105,1,1,1,0.5,4,0,1
1,2.26850899984129,106,0,1,1,0.5,4,0,1
0,1.15771119995043,107,1,1,1,0.5,4,0,1
0,0.639645799994469,108,1,1,1,0.5,4,0,1
0,0.832550799939781,109,1,1,1,0.5,4,0,1
0,0.804375200066716,110,0,1,1,0.5,4,0,1
0,3.76604729983956,111,1,1,1,0.5,4,0,1
1,0.774118700064719,112,1,1,1,0.5,4,0,1
1,0.737727800151333,113,0,1,1,0.5,4,0,1
1,0.714198499917984,114,0,1,1,0.5,4,0,1
1,1.54751860001124,115,0,1,1,0.5,4,0,1
0,1.84450350003317,116,1,1,1,0.5,4,0,1
1,1.42181490012445,117,0,1,1,0.5,4,0,1
1,0.796768300002441,118,0,1,1,0.5,4,0,1
1,1.48812659992836,119,0,1,1,0.5,4,0,1
0,1.03343329997733,120,1,1,1,0.5,4,0,1
1,1.62064460013062,121,1,1,1,0.5,4,0,1
1,0.823247299995273,122,1,1,1,0.5,4,0,1
1,0.561629900010303,123,1,1,1,0.5,4,0,1
1,0.861518000019714,124,1,1,1,0.5,4,0,1
1,0.639463700121269,125,1,1,1,0.5,4,0,1
1,1.14377399999648,126,0,1,1,0.5,4,0,1
0,0.550337200053036,127,0,1,1,0.5,4,0,1
1,0.560753700090572,128,1,1,1,0.5,4,0,1
1,0.691802599932998,129,1,1,1,0.5,4,0,1
1,0.694851000094786,130,0,1,1,0.5,4,0,1
1,1.16960869985633,131,1,1,1,0.5,4,0,1
1,1.20601369999349,132,1,1,1,0.5,4,0,1
1,1.40647929999977,133,1,1,1,0.5,4,0,1
1,1.19282380002551,134,1,1,1,0.5,4,0,1
1,0.683019299991429,135,1,1,1,0.5,4,0,1
1,1.53763919998892,136,1,1,1,0.5,4,0,1
1,0.835713300155476,137,1,1,1,0.5,4,0,1
1,0.600877200020477,138,0,1,1,0.5,4,0,1
1,1.52608490013517,139,1,1,1,0.5,4,0,1
0,0.675283999880776,140,0,1,1,0.5,4,0,1
1,0.804368899902329,141,1,1,1,0.5,4,0,1
1,0.508690199814737,142,1,1,1,0.5,4,0,1
1,0.828494899906218,143,1,1,1,0.5,4,0,1
1,0.653830399969593,144,1,1,1,0.5,4,0,1
1,0.555732899811119,145,1,1,1,0.5,4,0,1
1,0.574576599989086,146,1,1,1,0.5,4,0,1
1,0.595767799997702,147,1,1,1,0.5,4,0,1
1,0.680722399847582,148,1,1,1,0.5,4,0,1
1,0.537011099979281,149,1,1,1,0.5,4,0,1
1,0.52119049988687,150,1,1,1,0.5,4,0,1
1,0.746909599984065,151,1,1,1,0.5,4,0,1
1,0.43681350001134,152,1,1,1,0.5,4,0,1
1,0.494350099936128,153,0,1,1,0.5,4,0,1
1,1.24451670004055,154,1,1,1,0.5,4,0,1
1,0.727675700094551,155,1,1,1,0.5,4,0,1
1,1.50430689984933,156,1,1,1,0.5,4,0,1
1,0.627527699805796,157,1,1,1,0.5,4,0,1
1,0.534858699887991,158,1,1,1,0.5,4,0,1
1,1.27057129982859,159,1,1,1,0.5,4,0,1
1,0.715680900029838,160,1,1,1,0.5,4,0,1
0,6.42578879999928,1,1,1,1,0.5,4,0,2
0,0.571098800050095,2,1,1,1,0.5,4,0,2
1,0.453602000139654,3,0,1,1,0.5,4,0,2
1,0.309942400082946,4,0,1,1,0.5,4,0,2
0,0.35280799982138,5,1,1,1,0.5,4,0,2
0,0.388421199982986,6,1,1,1,0.5,4,0,2
0,0.507810600101948,7,1,1,1,0.5,4,0,2
0,0.44733739993535,8,1,1,1,0.5,4,0,2
1,0.730102800065652,9,0,1,1,0.5,4,0,2
0,0.949788899859414,10,1,1,1,0.5,4,0,2
0,0.391652500024065,11,1,1,1,0.5,4,0,2
1,0.628928799880669,12,0,1,1,0.5,4,0,2
1,0.259489099960774,13,0,1,1,0.5,4,0,2
0,0.205392299918458,14,1,1,1,0.5,4,0,2
0,0.597317100036889,15,1,1,1,0.5,4,0,2
1,1.56710989982821,16,0,1,1,0.5,4,0,2
1,1.40722867865651,17,0,1,1,0.5,4,0,2
1,0.859705399954692,18,0,1,1,0.5,4,0,2
0,1.23745768875981,19,1,1,1,0.5,4,0,2
0,1.87490609986708,20,1,1,1,0.5,4,0,2
1,0.466009100200608,21,0,1,1,0.5,4,0,2
1,1.400038769019,22,0,1,1,0.5,4,0,2
1,0.362580299843103,23,0,1,1,0.5,4,0,2
1,1.397162805164,24,0,1,1,0.5,4,0,2
1,0.485635300166905,25,0,1,1,0.5,4,0,2
0,0.377105100080371,26,1,1,1,0.5,4,0,2
0,0.615699399961159,27,1,1,1,0.5,4,0,2
0,0.684481600066647,28,0,1,1,0.5,4,0,2
1,1.38997289552649,29,0,1,1,0.5,4,0,2
0,0.380444099893793,30,1,1,1,0.5,4,0,2
0,0.778665399877355,31,1,1,1,0.5,4,0,2
0,0.548316499916837,32,1,1,1,0.5,4,0,2
1,0.948024799814448,33,0,1,1,0.5,4,0,2
0,0.278430500067771,34,1,1,1,0.5,4,0,2
1,0.261830099858344,35,0,1,1,0.5,4,0,2
0,0.268558399984613,36,0,1,1,0.5,4,0,2
0,0.292422099970281,37,1,1,1,0.5,4,0,2
0,0.322657800046727,38,1,1,1,0.5,4,0,2
1,0.261942500015721,39,0,1,1,0.5,4,0,2
0,0.285949199926108,40,1,1,1,0.5,4,0,2
0,0.924147099955007,41,0,1,1,0.5,4,0,2
1,1.2029623562121,42,1,1,1,0.5,4,0,2
0,0.481418899958953,43,0,1,1,0.5,4,0,2
1,0.615646499907598,44,1,1,1,0.5,4,0,2
1,0.81168289994821,45,1,1,1,0.5,4,0,2
1,0.255282700061798,46,1,1,1,0.5,4,0,2
0,0.855069000041112,47,0,1,1,0.5,4,0,2
1,0.483466800069436,48,1,1,1,0.5,4,0,2
0,0.507507900008932,49,1,1,1,0.5,4,0,2
1,1.26730050006881,50,1,1,1,0.5,4,0,2
1,1.24589790008031,51,1,1,1,0.5,4,0,2
1,0.992006400134414,52,1,1,1,0.5,4,0,2
0,1.35029769991525,53,0,1,1,0.5,4,0,2
0,0.957880700007081,54,0,1,1,0.5,4,0,2
0,0.2583852999378,55,0,1,1,0.5,4,0,2
1,0.552481600083411,56,0,1,1,0.5,4,0,2
0,0.425380300031975,57,0,1,1,0.5,4,0,2
0,0.380140699911863,58,0,1,1,0.5,4,0,2
0,0.760603100061417,59,0,1,1,0.5,4,0,2
1,0.364933000179008,60,1,1,1,0.5,4,0,2
0,0.253229700028896,61,0,1,1,0.5,4,0,2
1,0.289216199889779,62,0,1,1,0.5,4,0,2
1,0.25921169994399,63,1,1,1,0.5,4,0,2
0,0.274671599967405,64,0,1,1,0.5,4,0,2
0,0.274934899993241,65,0,1,1,0.5,4,0,2
0,0.324376600096002,66,0,1,1,0.5,4,0,2
0,0.5293767999392,67,0,1,1,0.5,4,0,2
0,0.569660000037402,68,0,1,1,0.5,4,0,2
1,0.626057399902493,69,1,1,1,0.5,4,0,2
1,1.32452300004661,70,1,1,1,0.5,4,0,2
1,1.41653049993329,71,1,1,1,0.5,4,0,2
0,2.03574959980324,72,0,1,1,0.5,4,0,2
1,0.41120390011929,73,1,1,1,0.5,4,0,2
0,1.03047510003671,74,0,1,1,0.5,4,0,2
1,0.529564899858087,75,1,1,1,0.5,4,0,2
1,1.21555820014328,76,1,1,1,0.5,4,0,2
0,1.6677826999221,77,0,1,1,0.5,4,0,2
0,1.32093352929403,78,0,1,1,0.5,4,0,2
1,0.375979600008577,79,1,1,1,0.5,4,0,2
1,0.535669200122356,80,0,1,1,0.5,4,0,2
0,0.485808400204405,81,1,1,1,0.5,4,0,2
1,0.606532199773938,82,0,1,1,0.5,4,0,2
0,0.3619589000009,83,1,1,1,0.5,4,0,2
0,0.918676600093022,84,1,1,1,0.5,4,0,2
0,1.64808099996299,85,0,1,1,0.5,4,0,2
0,0.566130500053987,86,1,1,1,0.5,4,0,2
0,1.02820009994321,87,1,1,1,0.5,4,0,2
1,0.839876499958336,88,1,1,1,0.5,4,0,2
1,1.26429620012641,89,0,1,1,0.5,4,0,2
0,0.0693352001253516,90,1,1,1,0.5,4,0,2
1,0.573788499925286,91,0,1,1,0.5,4,0,2
0,0.276984800118953,92,1,1,1,0.5,4,0,2
1,0.983156199799851,93,0,1,1,0.5,4,0,2
0,0.241523200180382,94,1,1,1,0.5,4,0,2
1,0.618879300076515,95,0,1,1,0.5,4,0,2
0,0.335870299953967,96,1,1,1,0.5,4,0,2
1,0.921354599995539,97,0,1,1,0.5,4,0,2
1,0.444554999936372,98,0,1,1,0.5,4,0,2
1,0.499686500057578,99,0,1,1,0.5,4,0,2
0,0.327018300071359,100,1,1,1,0.5,4,0,2
0,0.472842199960724,101,1,1,1,0.5,4,0,2
1,1.40253799990751,102,0,1,1,0.5,4,0,2
0,1.11666720684962,103,1,1,1,0.5,4,0,2
0,0.348997800145298,104,1,1,1,0.5,4,0,2
0,0.621422100113705,105,1,1,1,0.5,4,0,2
1,0.82363159977831,106,0,1,1,0.5,4,0,2
1,1.2778103051813,107,0,1,1,0.5,4,0,2
1,0.36824330012314,108,0,1,1,0.5,4,0,2
0,0.327969199977815,109,1,1,1,0.5,4,0,2
1,0.729428600054234,110,1,1,1,0.5,4,0,2
0,0.808122999966145,111,1,1,1,0.5,4,0,2
1,1.38656060001813,112,0,1,1,0.5,4,0,2
0,0.309305999893695,113,1,1,1,0.5,4,0,2
1,0.65372410020791,114,0,1,1,0.5,4,0,2
1,0.981644399929792,115,0,1,1,0.5,4,0,2
1,0.507300199940801,116,0,1,1,0.5,4,0,2
0,0.632047399878502,117,1,1,1,0.5,4,0,2
0,1.18408309994265,118,1,1,1,0.5,4,0,2
0,0.965309200109914,119,1,1,1,0.5,4,0,2
0,1.3943318000529,120,1,1,1,0.5,4,0,2
1,2.06117379991338,121,1,1,1,0.5,4,0,2
0,1.34595749992877,122,0,1,1,0.5,4,0,2
0,0.239799299975857,123,0,1,1,0.5,4,0,2
1,0.377539400011301,124,1,1,1,0.5,4,0,2
0,0.480404599802569,125,0,1,1,0.5,4,0,2
0,0.23039190005511,126,0,1,1,0.5,4,0,2
1,0.258847699966282,127,1,1,1,0.5,4,0,2
1,0.389235300011933,128,1,1,1,0.5,4,0,2
0,0.782863300060853,129,1,1,1,0.5,4,0,2
0,1.00472710002214,130,1,1,1,0.5,4,0,2
0,0.662064099917188,131,0,1,1,0.5,4,0,2
1,0.24552040011622,132,1,1,1,0.5,4,0,2
0,0.566236200043932,133,0,1,1,0.5,4,0,2
0,0.341064299922437,134,0,1,1,0.5,4,0,2
0,0.291331500047818,135,0,1,1,0.5,4,0,2
1,1.83886110014282,136,1,1,1,0.5,4,0,2
1,0.386235999874771,137,1,1,1,0.5,4,0,2
0,0.367529999930412,138,0,1,1,0.5,4,0,2
1,1.06347810924438,139,1,1,1,0.5,4,0,2
1,0.0721324000041932,140,1,1,1,0.5,4,0,2
1,0.999788699904457,141,0,1,1,0.5,4,0,2
1,0.216712399851531,142,1,1,1,0.5,4,0,2
1,1.05772618153437,143,1,1,1,0.5,4,0,2
1,1.05628819960686,144,1,1,1,0.5,4,0,2
0,0.153888799948618,145,0,1,1,0.5,4,0,2
0,0.0717145998496562,146,0,1,1,0.5,4,0,2
0,0.235665499931201,147,0,1,1,0.5,4,0,2
1,0.35410359990783,148,1,1,1,0.5,4,0,2
0,1.21883681244136,149,0,1,1,0.5,4,0,2
0,0.148711500223726,150,0,1,1,0.5,4,0,2
1,0.500548199983314,151,1,1,1,0.5,4,0,2
1,0.268942299997434,152,1,1,1,0.5,4,0,2
0,0.43823969992809,153,1,1,1,0.5,4,0,2
1,0.589240500004962,154,0,1,1,0.5,4,0,2
0,0.240059500094503,155,1,1,1,0.5,4,0,2
0,0.505684999981895,156,0,1,1,0.5,4,0,2
0,1.20733295702134,157,0,1,1,0.5,4,0,2
0,0.181539899902418,158,0,1,1,0.5,4,0,2
1,0.31561839999631,159,1,1,1,0.5,4,0,2
1,0.512040399946272,160,1,1,1,0.5,4,0,2
1,0.893687200034037,1,0,1,0,0.5,2,0,2
1,1.18341739987955,2,0,1,0,0.5,2,0,2
1,1.17147110006772,3,0,1,0,0.5,2,0,2
1,0.562418600078672,4,0,1,0,0.5,2,0,2
1,0.584639400010929,5,0,1,0,0.5,2,0,2
0,1.12872379994951,6,1,1,0,0.5,2,0,2
1,0.894305099966005,7,0,1,0,0.5,2,0,2
1,0.528891799971461,8,0,1,0,0.5,2,0,2
1,0.483132899971679,9,0,1,0,0.5,2,0,2
1,0.559736599912867,10,0,1,0,0.5,2,0,2
0,0.653527799993753,11,1,1,0,0.5,2,0,2
1,1.24145880015567,12,1,1,0,0.5,2,0,2
0,1.4693082999438,13,1,1,0,0.5,2,0,2
1,1.55413160007447,14,0,1,0,0.5,2,0,2
1,0.312370100058615,15,0,1,0,0.5,2,0,2
1,0.403233100194484,16,0,1,0,0.5,2,0,2
1,0.390165700111538,17,0,1,0,0.5,2,0,2
0,0.451784500153735,18,1,1,0,0.5,2,0,2
1,1.0382509001065,19,1,1,0,0.5,2,0,2
0,1.25403920002282,20,0,1,0,0.5,2,0,2
1,0.366240900009871,21,0,1,0,0.5,2,0,2
1,0.414527699816972,22,0,1,0,0.5,2,0,2
1,0.680100600002334,23,0,1,0,0.5,2,0,2
0,0.872988499933854,24,1,1,0,0.5,2,0,2
1,0.714776000007987,25,0,1,0,0.5,2,0,2
0,0.313434399897233,26,0,1,0,0.5,2,0,2
0,0.473926200065762,27,1,1,0,0.5,2,0,2
0,0.663916300050914,28,0,1,0,0.5,2,0,2
1,0.73418949986808,29,0,1,0,0.5,2,0,2
1,0.0704752001911402,30,0,1,0,0.5,2,0,2
0,0.0991785998921841,31,1,1,0,0.5,2,0,2
0,1.23528493113432,32,1,1,0,0.5,2,0,2
1,0.987818900030106,33,0,1,0,0.5,2,0,2
0,0.377492100000381,34,1,1,0,0.5,2,0,2
0,0.317730400012806,35,1,1,0,0.5,2,0,2
1,0.465056299930438,36,0,1,0,0.5,2,0,2
0,1.39641179575366,37,0,1,0,0.5,2,0,2
0,0.363653400214389,38,1,1,0,0.5,2,0,2
1,0.925564300036058,39,0,1,0,0.5,2,0,2
1,0.464050699956715,40,0,1,0,0.5,2,0,2
1,0.567038899986073,41,1,1,0,0.5,2,0,2
1,0.714402599958703,42,1,1,0,0.5,2,0,2
1,3.79348029987887,43,1,1,0,0.5,2,0,2
1,1.38575330004096,44,1,1,0,0.5,2,0,2
0,0.836112200049684,45,0,1,0,0.5,2,0,2
0,1.38346995840614,46,0,1,0,0.5,2,0,2
0,1.38203197647864,47,0,1,0,0.5,2,0,2
1,0.0879291000310332,48,1,1,0,0.5,2,0,2
0,0.49402890005149,49,0,1,0,0.5,2,0,2
0,0.105586799792945,50,0,1,0,0.5,2,0,2
0,0.443973300047219,51,0,1,0,0.5,2,0,2
0,0.408199999947101,52,0,1,0,0.5,2,0,2
1,0.357029299950227,53,1,1,0,0.5,2,0,2
1,0.384806100046262,54,1,1,0,0.5,2,0,2
1,0.479350399924442,55,1,1,0,0.5,2,0,2
0,0.776114400010556,56,0,1,0,0.5,2,0,2
1,0.580734399845824,57,1,1,0,0.5,2,0,2
1,0.694547000108287,58,1,1,0,0.5,2,0,2
0,0.834428700152785,59,0,1,0,0.5,2,0,2
1,0.0631414998788387,60,1,1,0,0.5,2,0,2
1,0.865935700014234,61,1,1,0,0.5,2,0,2
1,1.19072372509409,62,1,1,0,0.5,2,0,2
0,0.609836400020868,63,0,1,0,0.5,2,0,2
0,0.415834800107405,64,0,1,0,0.5,2,0,2
1,0.39779970003292,65,1,1,0,0.5,2,0,2
0,0.648368899943307,66,0,1,0,0.5,2,0,2
0,1.35327233792859,67,0,1,0,0.5,2,0,2
1,0.145311100175604,68,1,1,0,0.5,2,0,2
0,0.411002999870107,69,0,1,0,0.5,2,0,2
0,0.50423530000262,70,0,1,0,0.5,2,0,2
0,0.583357600029558,71,0,1,0,0.5,2,0,2
0,0.796967499889433,72,0,1,0,0.5,2,0,2
0,0.602577599929646,73,0,1,0,0.5,2,0,2
0,0.336039699846879,74,1,1,0,0.5,2,0,2
1,0.399330600164831,75,1,1,0,0.5,2,0,2
0,2.17586599988863,76,0,1,0,0.5,2,0,2
1,1.48140030005015,77,1,1,0,0.5,2,0,2
1,1.18755270005204,78,1,1,0,0.5,2,0,2
0,0.437542400090024,79,0,1,0,0.5,2,0,2
0,0.568991899956018,80,1,1,0,0.5,2,0,2
0,1.35315870004706,81,1,1,0,0.5,2,0,2
0,1.74719879985787,82,1,1,0,0.5,2,0,2
1,1.50023979996331,83,0,1,0,0.5,2,0,2
1,1.3274048969459,84,0,1,0,0.5,2,0,2
0,0.52710760012269,85,1,1,0,0.5,2,0,2
0,1.90517699997872,86,1,1,0,0.5,2,0,2
1,1.2065997000318,87,0,1,0,0.5,2,0,2
0,0.501534099923447,88,1,1,0,0.5,2,0,2
0,0.807519299909473,89,1,1,0,0.5,2,0,2
1,1.38532759994268,90,0,1,0,0.5,2,0,2
0,0.906764099840075,91,1,1,0,0.5,2,0,2
0,0.986570300068706,92,1,1,0,0.5,2,0,2
1,1.37773309997283,93,0,1,0,0.5,2,0,2
1,0.0869856998324394,94,1,1,0,0.5,2,0,2
1,0.459568299818784,95,0,1,0,0.5,2,0,2
0,0.457766599953175,96,1,1,0,0.5,2,0,2
1,0.404007700039074,97,0,1,0,0.5,2,0,2
0,0.325778599828482,98,1,1,0,0.5,2,0,2
0,0.322049199836329,99,1,1,0,0.5,2,0,2
0,0.341670599998906,100,1,1,0,0.5,2,0,2
1,0.541347000049427,101,0,1,0,0.5,2,0,2
1,0.334513500100002,102,0,1,0,0.5,2,0,2
0,0.295831999974325,103,1,1,0,0.5,2,0,2
0,0.29702390008606,104,1,1,0,0.5,2,0,2
0,0.283903899835423,105,1,1,0,0.5,2,0,2
0,0.137623599963263,106,1,1,0,0.5,2,0,2
1,1.29433131261334,107,0,1,0,0.5,2,0,2
0,1.12599830464414,108,1,1,0,0.5,2,0,2
0,1.12456032271664,109,1,1,0,0.5,2,0,2
0,1.29143911504599,110,0,1,0,0.5,2,0,2
1,0.06392029998824,111,0,1,0,0.5,2,0,2
0,0.288019499974325,112,0,1,0,0.5,2,0,2
0,1.11880839500663,113,1,1,0,0.5,2,0,2
0,0.14684720011428,114,1,1,0,0.5,2,0,2
0,1.11593243115162,115,1,1,0,0.5,2,0,2
0,1.11449444922412,116,1,1,0,0.5,2,0,2
0,1.11305646729662,117,1,1,0,0.5,2,0,2
0,1.11161848536912,118,1,1,0,0.5,2,0,2
0,1.11018050344162,119,1,1,0,0.5,2,0,2
0,1.10874252151411,120,1,1,0,0.5,2,0,2
0,1.27562131384346,121,0,1,0,0.5,2,0,2
1,1.10444480944395,122,1,1,0,0.5,2,0,2
0,0.126089599914849,123,0,1,0,0.5,2,0,2
0,0.214677799958736,124,0,1,0,0.5,2,0,2
1,0.526945800054818,125,1,1,0,0.5,2,0,2
1,0.464734999928623,126,0,1,0,0.5,2,0,2
0,0.426985899917781,127,0,1,0,0.5,2,0,2
1,0.465979999862611,128,1,1,0,0.5,2,0,2
0,0.386814499972388,129,0,1,0,0.5,2,0,2
1,0.372273200191557,130,0,1,0,0.5,2,0,2
1,0.386454599909484,131,1,1,0,0.5,2,0,2
1,0.97785949986428,132,1,1,0,0.5,2,0,2
1,1.09522280003876,133,1,1,0,0.5,2,0,2
1,1.41365280002356,134,1,1,0,0.5,2,0,2
1,0.936498400056735,135,1,1,0,0.5,2,0,2
1,1.39240509993397,136,1,1,0,0.5,2,0,2
0,1.4188544000499,137,0,1,0,0.5,2,0,2
1,1.12132180016488,138,0,1,0,0.5,2,0,2
1,0.103656899882481,139,1,1,0,0.5,2,0,2
1,0.307841800153255,140,1,1,0,0.5,2,0,2
0,0.362166800070554,141,0,1,0,0.5,2,0,2
1,0.180555600207299,142,1,1,0,0.5,2,0,2
1,0.382253600051627,143,1,1,0,0.5,2,0,2
1,0.630177200073376,144,1,1,0,0.5,2,0,2
0,0.144501999951899,145,0,1,0,0.5,2,0,2
1,0.19507239991799,146,1,1,0,0.5,2,0,2
0,0.340338499983773,147,0,1,0,0.5,2,0,2
1,0.0507477999199182,148,1,1,0,0.5,2,0,2
0,1.2353578198734,149,0,1,0,0.5,2,0,2
1,1.06418131547389,150,1,1,0,0.5,2,0,2
1,1.06274333354638,151,1,1,0,0.5,2,0,2
0,0.26128189987503,152,0,1,0,0.5,2,0,2
1,1.22818414394823,153,0,1,0,0.5,2,0,2
1,0.346238499972969,154,1,1,0,0.5,2,0,2
1,0.104264199966565,155,1,1,0,0.5,2,0,2
1,0.294040499953553,156,1,1,0,0.5,2,0,2
0,1.22385396445338,157,0,1,0,0.5,2,0,2
1,0.253559600096196,158,1,1,0,0.5,2,0,2
0,0.799031700007618,159,0,1,0,0.5,2,0,2
0,0.317232399946079,160,0,1,0,0.5,2,0,2
1,5.04855690011755,1,0,1,0,0.5,2,0,3
1,2.12774090003222,2,0,1,0,0.5,2,0,3
0,1.44223669986241,3,1,1,0,0.5,2,0,3
1,1.09034259989858,4,0,1,0,0.5,2,0,3
0,1.86227319994941,5,1,1,0,0.5,2,0,3
1,1.77707770001143,6,0,1,0,0.5,2,0,3
0,0.773444999940693,7,1,1,0,0.5,2,0,3
1,1.20420480007306,8,0,1,0,0.5,2,0,3
1,3.02532879984938,9,0,1,0,0.5,2,0,3
0,0.597971299896017,10,1,1,0,0.5,2,0,3
0,0.76377009996213,11,1,1,0,0.5,2,0,3
1,1.34707180014811,12,0,1,0,0.5,2,0,3
0,1.11143789999187,13,1,1,0,0.5,2,0,3
0,1.09891450009309,14,1,1,0,0.5,2,0,3
0,1.88086230005138,15,1,1,0,0.5,2,0,3
0,2.74225070001557,16,1,1,0,0.5,2,0,3
1,3.51739090005867,17,0,1,0,0.5,2,0,3
0,0.563432099996135,18,1,1,0,0.5,2,0,3
0,0.846110600046814,19,1,1,0,0.5,2,0,3
0,1.06722249998711,20,1,1,0,0.5,2,0,3
0,1.14944040006958,21,1,1,0,0.5,2,0,3
0,3.41674220003188,22,1,1,0,0.5,2,0,3
0,0.518002800177783,23,1,1,0,0.5,2,0,3
0,2.4428101000376,24,1,1,0,0.5,2,0,3
0,0.667572200065479,25,1,1,0,0.5,2,0,3
0,0.593913699965924,26,1,1,0,0.5,2,0,3
0,1.48711990006268,27,1,1,0,0.5,2,0,3
0,3.24123869999312,28,0,1,0,0.5,2,0,3
1,1.46644839993678,29,0,1,0,0.5,2,0,3
0,1.66618090006523,30,1,1,0,0.5,2,0,3
0,0.563874199986458,31,1,1,0,0.5,2,0,3
0,0.607637300156057,32,1,1,0,0.5,2,0,3
0,0.791390700032935,33,1,1,0,0.5,2,0,3
0,0.673661699984223,34,1,1,0,0.5,2,0,3
0,4.3333469000645,35,1,1,0,0.5,2,0,3
1,1.12365689990111,36,1,1,0,0.5,2,0,3
1,0.837315900018439,37,0,1,0,0.5,2,0,3
1,1.579679899849,38,0,1,0,0.5,2,0,3
0,0.795956199988723,39,1,1,0,0.5,2,0,3
0,1.236591800116,40,1,1,0,0.5,2,0,3
0,1.5573714999482,41,0,1,0,0.5,2,0,3
0,1.44522570003755,42,0,1,0,0.5,2,0,3
0,0.865730199962854,43,0,1,0,0.5,2,0,3
1,1.90312970010564,44,1,1,0,0.5,2,0,3
1,0.756199199939147,45,1,1,0,0.5,2,0,3
1,1.74428649991751,46,1,1,0,0.5,2,0,3
1,0.658416799968109,47,1,1,0,0.5,2,0,3
1,0.704212199896574,48,1,1,0,0.5,2,0,3
1,1.75611230009235,49,0,1,0,0.5,2,0,3
1,0.628771000076085,50,1,1,0,0.5,2,0,3
1,0.718221000162885,51,1,1,0,0.5,2,0,3
0,3.56474279984832,52,0,1,0,0.5,2,0,3
0,1.58474169997498,53,0,1,0,0.5,2,0,3
0,0.528729800134897,54,0,1,0,0.5,2,0,3
1,1.89807910006493,55,1,1,0,0.5,2,0,3
1,1.04956760001369,56,0,1,0,0.5,2,0,3
1,3.12222599983215,57,1,1,0,0.5,2,0,3
1,0.622109400108457,58,1,1,0,0.5,2,0,3
1,0.832290499936789,59,1,1,0,0.5,2,0,3
0,4.00175189995207,60,0,1,0,0.5,2,0,3
0,0.872046800097451,61,0,1,0,0.5,2,0,3
0,1.68746330006979,62,1,1,0,0.5,2,0,3
0,1.07253269990906,63,0,1,0,0.5,2,0,3
1,2.22172289993614,64,1,1,0,0.5,2,0,3
1,1.61031330004334,65,1,1,0,0.5,2,0,3
1,0.747352899983525,66,1,1,0,0.5,2,0,3
1,0.900639100000262,67,1,1,0,0.5,2,0,3
1,2.04400460002944,68,1,1,0,0.5,2,0,3
1,0.814012999879196,69,1,1,0,0.5,2,0,3
1,0.715622900053859,70,1,1,0,0.5,2,0,3
1,2.30110240005888,71,1,1,0,0.5,2,0,3
0,0.6792363000568,72,0,1,0,0.5,2,0,3
0,0.822034300072119,73,0,1,0,0.5,2,0,3
1,0.84267000015825,74,1,1,0,0.5,2,0,3
1,0.966189299942926,75,1,1,0,0.5,2,0,3
1,0.794530699960887,76,1,1,0,0.5,2,0,3
1,3.11559320008382,77,1,1,0,0.5,2,0,3
1,2.00765219982713,78,1,1,0,0.5,2,0,3
1,1.15229890006594,79,1,1,0,0.5,2,0,3
1,1.19997630012222,80,0,1,0,0.5,2,0,3
0,1.17924420000054,81,1,1,0,0.5,2,0,3
1,1.49367369990796,82,0,1,0,0.5,2,0,3
0,0.959239700110629,83,1,1,0,0.5,2,0,3
0,0.649914499837905,84,1,1,0,0.5,2,0,3
0,0.596899199998006,85,0,1,0,0.5,2,0,3
1,0.718281299807131,86,0,1,0,0.5,2,0,3
0,0.497984499903396,87,1,1,0,0.5,2,0,3
1,0.919457199983299,88,1,1,0,0.5,2,0,3
0,1.19873689999804,89,1,1,0,0.5,2,0,3
0,1.36134109995328,90,1,1,0,0.5,2,0,3
0,1.1060359000694,91,1,1,0,0.5,2,0,3
0,0.807063800049946,92,1,1,0,0.5,2,0,3
1,1.19979840004817,93,0,1,0,0.5,2,0,3
0,3.20750020002015,94,1,1,0,0.5,2,0,3
1,0.75011539994739,95,0,1,0,0.5,2,0,3
0,0.434119499986991,96,1,1,0,0.5,2,0,3
0,0.564845900051296,97,1,1,0,0.5,2,0,3
0,0.525923900073394,98,1,1,0,0.5,2,0,3
0,0.832652600016445,99,1,1,0,0.5,2,0,3
0,2.06249470007606,100,1,1,0,0.5,2,0,3
0,0.974210300017148,101,1,1,0,0.5,2,0,3
0,0.939440699992701,102,1,1,0,0.5,2,0,3
0,0.570087399799377,103,1,1,0,0.5,2,0,3
0,0.576911000069231,104,1,1,0,0.5,2,0,3
0,1.06891340017319,105,1,1,0,0.5,2,0,3
0,0.705608000047505,106,1,1,0,0.5,2,0,3
0,1.89820399996825,107,1,1,0,0.5,2,0,3
0,0.97726310021244,108,1,1,0,0.5,2,0,3
0,0.810774100013077,109,1,1,0,0.5,2,0,3
0,2.17101490008645,110,0,1,0,0.5,2,0,3
0,1.26193000003696,111,1,1,0,0.5,2,0,3
0,0.667757299961522,112,1,1,0,0.5,2,0,3
0,0.785575200105086,113,1,1,0,0.5,2,0,3
1,0.76243030000478,114,0,1,0,0.5,2,0,3
0,0.700437299907208,115,1,1,0,0.5,2,0,3
0,2.09726880001836,116,1,1,0,0.5,2,0,3
0,0.87948579993099,117,1,1,0,0.5,2,0,3
0,0.761288500158116,118,1,1,0,0.5,2,0,3
0,1.39093789993785,119,1,1,0,0.5,2,0,3
1,0.534352399874479,120,0,1,0,0.5,2,0,3
0,0.602532299933955,121,0,1,0,0.5,2,0,3
1,1.59118859982118,122,1,1,0,0.5,2,0,3
1,1.18742139986716,123,1,1,0,0.5,2,0,3
1,0.827587800100446,124,1,1,0,0.5,2,0,3
1,1.091864899965,125,1,1,0,0.5,2,0,3
1,1.91257899999619,126,1,1,0,0.5,2,0,3
1,2.2994544999674,127,1,1,0,0.5,2,0,3
1,0.879528800025582,128,1,1,0,0.5,2,0,3
1,1.60001089982688,129,0,1,0,0.5,2,0,3
0,0.918028899934143,130,1,1,0,0.5,2,0,3
0,0.790281199850142,131,0,1,0,0.5,2,0,3
0,1.41148220002651,132,0,1,0,0.5,2,0,3
0,1.76713300007395,133,0,1,0,0.5,2,0,3
1,1.2059220999945,134,1,1,0,0.5,2,0,3
1,1.55877929995768,135,1,1,0,0.5,2,0,3
1,0.964668200118467,136,1,1,0,0.5,2,0,3
1,0.984963199822232,137,1,1,0,0.5,2,0,3
1,1.91106690000743,138,1,1,0,0.5,2,0,3
1,0.975243099965155,139,1,1,0,0.5,2,0,3
1,0.768687099916861,140,1,1,0,0.5,2,0,3
1,2.6810298000928,141,0,1,0,0.5,2,0,3
0,4.41709559992887,142,0,1,0,0.5,2,0,3
1,0.728558799950406,143,1,1,0,0.5,2,0,3
1,0.651683000149205,144,1,1,0,0.5,2,0,3
0,0.904107199981809,145,0,1,0,0.5,2,0,3
1,1.58134609996341,146,1,1,0,0.5,2,0,3
1,0.622927600052208,147,1,1,0,0.5,2,0,3
1,1.89203649992123,148,1,1,0,0.5,2,0,3
1,1.10451989993453,149,1,1,0,0.5,2,0,3
1,1.16276560002007,150,1,1,0,0.5,2,0,3
1,0.927136600017548,151,1,1,0,0.5,2,0,3
1,1.03197779995389,152,1,1,0,0.5,2,0,3
1,1.53696419997141,153,0,1,0,0.5,2,0,3
1,1.26792899984866,154,0,1,0,0.5,2,0,3
0,0.965288300067186,155,1,1,0,0.5,2,0,3
0,0.684829599922523,156,0,1,0,0.5,2,0,3
1,1.2977398999501,157,1,1,0,0.5,2,0,3
1,0.599050600081682,158,1,1,0,0.5,2,0,3
1,1.99712239997461,159,1,1,0,0.5,2,0,3
1,0.615612599998713,160,1,1,0,0.5,2,0,3
1,5.01256569987163,1,0,1,1,0.5,4,0,3
1,4.10148150008172,2,0,1,1,0.5,4,0,3
0,1.26046539959985,3,1,1,1,0.5,4,0,3
1,4.60467969998717,4,0,1,1,0.5,4,0,3
0,3.91899739997461,5,1,1,1,0.5,4,0,3
1,7.75347890006378,6,0,1,1,0.5,4,0,3
0,1.38852269994095,7,1,1,1,0.5,4,0,3
0,1.60753839998506,8,1,1,1,0.5,4,0,3
0,1.40140520012937,9,1,1,1,0.5,4,0,3
0,1.3459857001435,10,1,1,1,0.5,4,0,3
0,1.54721489991061,11,1,1,1,0.5,4,0,3
0,2.71298289997503,12,0,1,1,0.5,4,0,3
0,2.34220489999279,13,1,1,1,0.5,4,0,3
0,1.32871189992875,14,1,1,1,0.5,4,0,3
1,1.2572093999479,15,0,1,1,0.5,4,0,3
1,1.41294569987804,16,0,1,1,0.5,4,0,3
0,1.10738319996744,17,1,1,1,0.5,4,0,3
0,2.73065949999727,18,1,1,1,0.5,4,0,3
0,2.63759039994329,19,0,1,1,0.5,4,0,3
0,2.48740480002016,20,0,1,1,0.5,4,0,3
0,1.42937540006824,21,1,1,1,0.5,4,0,3
0,3.81259270012379,22,1,1,1,0.5,4,0,3
0,1.37188469991088,23,1,1,1,0.5,4,0,3
1,3.09484380017966,24,0,1,1,0.5,4,0,3
0,0.866233000066131,25,1,1,1,0.5,4,0,3
0,4.04697080003098,26,0,1,1,0.5,4,0,3
0,0.704470099881291,27,1,1,1,0.5,4,0,3
0,1.35344889992848,28,0,1,1,0.5,4,0,3
1,0.90859349980019,29,0,1,1,0.5,4,0,3
0,2.04681929992512,30,1,1,1,0.5,4,0,3
0,1.09820149978623,31,1,1,1,0.5,4,0,3
0,1.67046920000575,32,1,1,1,0.5,4,0,3
0,1.78021560003981,33,1,1,1,0.5,4,0,3
0,1.55582710006274,34,1,1,1,0.5,4,0,3
0,1.20151970000006,35,1,1,1,0.5,4,0,3
0,1.77742690010928,36,1,1,1,0.5,4,0,3
0,1.44000880001113,37,0,1,1,0.5,4,0,3
0,1.25597149995156,38,1,1,1,0.5,4,0,3
0,1.71773889986798,39,1,1,1,0.5,4,0,3
0,1.08703830000013,40,1,1,1,0.5,4,0,3
0,2.87034719996154,41,0,1,1,0.5,4,0,3
0,0.766338600078598,42,0,1,1,0.5,4,0,3
0,1.70204590004869,43,0,1,1,0.5,4,0,3
1,2.08042309992015,44,1,1,1,0.5,4,0,3
0,2.41177110001445,45,0,1,1,0.5,4,0,3
0,0.530878800200298,46,0,1,1,0.5,4,0,3
0,1.3861096999608,47,0,1,1,0.5,4,0,3
0,1.07404079986736,48,0,1,1,0.5,4,0,3
0,1.51348410011269,49,0,1,1,0.5,4,0,3
0,1.37644969997928,50,0,1,1,0.5,4,0,3
1,0.908926100004464,51,1,1,1,0.5,4,0,3
0,1.29331910004839,52,0,1,1,0.5,4,0,3
0,2.67301650019363,53,0,1,1,0.5,4,0,3
1,0.636818600120023,54,1,1,1,0.5,4,0,3
1,3.92010540002957,55,1,1,1,0.5,4,0,3
0,2.07397070014849,56,0,1,1,0.5,4,0,3
0,2.13279980001971,57,0,1,1,0.5,4,0,3
0,1.09943079994991,58,0,1,1,0.5,4,0,3
1,1.45330199995078,59,1,1,1,0.5,4,0,3
1,4.45257139997557,60,1,1,1,0.5,4,0,3
1,3.3813003001269,61,1,1,1,0.5,4,0,3
1,2.14439089992084,62,1,1,1,0.5,4,0,3
0,2.7987953000702,63,0,1,1,0.5,4,0,3
0,1.56566710001789,64,0,1,1,0.5,4,0,3
1,1.24121479992755,65,1,1,1,0.5,4,0,3
1,1.14648539992049,66,1,1,1,0.5,4,0,3
1,0.84473460004665,67,1,1,1,0.5,4,0,3
1,1.08963599987328,68,1,1,1,0.5,4,0,3
1,1.11580619984306,69,1,1,1,0.5,4,0,3
0,4.22171820001677,70,0,1,1,0.5,4,0,3
1,0.583638100186363,71,1,1,1,0.5,4,0,3
1,1.34885059995577,72,1,1,1,0.5,4,0,3
0,2.88438309985213,73,0,1,1,0.5,4,0,3
0,1.54676509997807,74,1,1,1,0.5,4,0,3
1,1.22364560002461,75,1,1,1,0.5,4,0,3
1,2.86730189993978,76,1,1,1,0.5,4,0,3
1,1.28208709997125,77,1,1,1,0.5,4,0,3
1,1.34396190010011,78,1,1,1,0.5,4,0,3
1,1.40894069988281,79,1,1,1,0.5,4,0,3
1,0.908304600045085,80,0,1,1,0.5,4,0,3
0,1.46012909989804,81,1,1,1,0.5,4,0,3
0,1.64389800000936,82,1,1,1,0.5,4,0,3
0,0.926933800103143,83,1,1,1,0.5,4,0,3
1,3.61952170007862,84,0,1,1,0.5,4,0,3
1,1.42461639991961,85,0,1,1,0.5,4,0,3
0,0.792313599959016,86,1,1,1,0.5,4,0,3
1,0.791941999923438,87,0,1,1,0.5,4,0,3
1,1.56339489994571,88,0,1,1,0.5,4,0,3
1,0.809452699963003,89,0,1,1,0.5,4,0,3
0,0.752598799997941,90,1,1,1,0.5,4,0,3
1,0.918747299816459,91,0,1,1,0.5,4,0,3
0,1.07573110004887,92,1,1,1,0.5,4,0,3
0,3.52469299989752,93,1,1,1,0.5,4,0,3
1,1.52843270008452,94,1,1,1,0.5,4,0,3
0,1.54269669996575,95,1,1,1,0.5,4,0,3
0,2.07274789991789,96,1,1,1,0.5,4,0,3
0,1.57335310010239,97,1,1,1,0.5,4,0,3
0,1.58862749999389,98,1,1,1,0.5,4,0,3
0,3.59775989991613,99,1,1,1,0.5,4,0,3
0,1.73937129997648,100,1,1,1,0.5,4,0,3
0,1.18723239982501,101,1,1,1,0.5,4,0,3
0,2.43708130018786,102,1,1,1,0.5,4,0,3
0,2.45352300000377,103,1,1,1,0.5,4,0,3
0,1.99582189996727,104,1,1,1,0.5,4,0,3
0,3.5574934000615,105,1,1,1,0.5,4,0,3
0,1.75294809998013,106,1,1,1,0.5,4,0,3
0,1.11890259990469,107,1,1,1,0.5,4,0,3
0,0.956922499928623,108,1,1,1,0.5,4,0,3
0,1.49628840014339,109,1,1,1,0.5,4,0,3
0,1.07517160009593,110,0,1,1,0.5,4,0,3
0,1.35590950003825,111,1,1,1,0.5,4,0,3
0,1.21663510007784,112,0,1,1,0.5,4,0,3
0,1.65162819996476,113,1,1,1,0.5,4,0,3
0,1.15234989998862,114,1,1,1,0.5,4,0,3
0,1.20006099995226,115,1,1,1,0.5,4,0,3
0,1.26260590017773,116,1,1,1,0.5,4,0,3
0,1.20643679983914,117,1,1,1,0.5,4,0,3
0,0.918156299972907,118,1,1,1,0.5,4,0,3
0,1.10624729981646,119,1,1,1,0.5,4,0,3
0,1.00383539986797,120,1,1,1,0.5,4,0,3
0,0.827421800000593,121,0,1,1,0.5,4,0,3
0,2.62493069982156,122,0,1,1,0.5,4,0,3
0,1.53673200006597,123,0,1,1,0.5,4,0,3
0,1.04020039993338,124,0,1,1,0.5,4,0,3
1,1.20383079978637,125,1,1,1,0.5,4,0,3
0,1.29476989991963,126,1,1,1,0.5,4,0,3
0,1.5339551998768,127,0,1,1,0.5,4,0,3
1,1.9113102001138,128,1,1,1,0.5,4,0,3
1,1.11434969981201,129,1,1,1,0.5,4,0,3
1,1.13152010017075,130,0,1,1,0.5,4,0,3
0,1.16530120000243,131,0,1,1,0.5,4,0,3
0,0.644511300139129,132,0,1,1,0.5,4,0,3
0,0.451015900122002,133,0,1,1,0.5,4,0,3
0,4.25736629986204,134,0,1,1,0.5,4,0,3
0,1.29003290017135,135,0,1,1,0.5,4,0,3
0,0.623765100026503,136,0,1,1,0.5,4,0,3
0,1.63704709988087,137,0,1,1,0.5,4,0,3
1,0.70824859989807,138,0,1,1,0.5,4,0,3
0,0.635562400100753,139,0,1,1,0.5,4,0,3
0,0.526680300012231,140,0,1,1,0.5,4,0,3
0,1.149430999998,141,0,1,1,0.5,4,0,3
1,0.607610499951989,142,1,1,1,0.5,4,0,3
0,0.735414500115439,143,0,1,1,0.5,4,0,3
0,1.5827785001602,144,0,1,1,0.5,4,0,3
1,0.37438220018521,145,1,1,1,0.5,4,0,3
1,0.495617600157857,146,1,1,1,0.5,4,0,3
1,0.552312299842015,147,1,1,1,0.5,4,0,3
1,1.03504949994385,148,1,1,1,0.5,4,0,3
1,1.88449790002778,149,1,1,1,0.5,4,0,3
1,1.44502520002425,150,1,1,1,0.5,4,0,3
1,4.59317040001042,151,1,1,1,0.5,4,0,3
1,1.05146079999395,152,1,1,1,0.5,4,0,3
1,0.864344199886546,153,0,1,1,0.5,4,0,3
0,2.00732850003988,154,0,1,1,0.5,4,0,3
0,0.62240540003404,155,0,1,1,0.5,4,0,3
0,0.411953300004825,156,0,1,1,0.5,4,0,3
1,1.44846499990672,157,1,1,1,0.5,4,0,3
1,0.891080199973658,158,1,1,1,0.5,4,0,3
1,1.34077170002274,159,1,1,1,0.5,4,0,3
0,1.01194730005227,160,0,1,1,0.5,4,0,3
0,2.16468439996243,1,1,1,1,0.5,4,0,4
1,0.544613899895921,2,0,1,1,0.5,4,0,4
0,0.546755500137806,3,1,1,1,0.5,4,0,4
0,0.358642200008035,4,1,1,1,0.5,4,0,4
0,0.670184799935669,5,1,1,1,0.5,4,0,4
0,0.510309599805623,6,1,1,1,0.5,4,0,4
0,0.399275399977341,7,1,1,1,0.5,4,0,4
0,0.34946129983291,8,1,1,1,0.5,4,0,4
0,0.568146100034937,9,1,1,1,0.5,4,0,4
0,0.555918900063261,10,1,1,1,0.5,4,0,4
0,0.407182700000703,11,1,1,1,0.5,4,0,4
0,0.481624800013378,12,1,1,1,0.5,4,0,4
0,0.479242600034922,13,0,1,1,0.5,4,0,4
0,0.486619000090286,14,1,1,1,0.5,4,0,4
0,0.357061000075191,15,1,1,1,0.5,4,0,4
0,0.384044599952176,16,1,1,1,0.5,4,0,4
0,0.536655700067058,17,1,1,1,0.5,4,0,4
0,0.364878199994564,18,1,1,1,0.5,4,0,4
0,0.330206799786538,19,1,1,1,0.5,4,0,4
0,0.336222900077701,20,0,1,1,0.5,4,0,4
0,0.490469900192693,21,0,1,1,0.5,4,0,4
1,0.498514899984002,22,0,1,1,0.5,4,0,4
0,0.529712500050664,23,1,1,1,0.5,4,0,4
0,0.426934499992058,24,1,1,1,0.5,4,0,4
0,0.370137500111014,25,1,1,1,0.5,4,0,4
0,0.306533299852163,26,1,1,1,0.5,4,0,4
0,0.399599599884823,27,0,1,1,0.5,4,0,4
1,0.701897500082851,28,0,1,1,0.5,4,0,4
0,0.547247700160369,29,0,1,1,0.5,4,0,4
0,0.488481699954718,30,1,1,1,0.5,4,0,4
0,0.686813000123948,31,1,1,1,0.5,4,0,4
0,0.454034800175577,32,1,1,1,0.5,4,0,4
0,0.445170100079849,33,1,1,1,0.5,4,0,4
0,0.472933199955151,34,1,1,1,0.5,4,0,4
0,0.425081999972463,35,1,1,1,0.5,4,0,4
0,0.50892459996976,36,1,1,1,0.5,4,0,4
0,0.398561799898744,37,1,1,1,0.5,4,0,4
0,0.417399100027978,38,0,1,1,0.5,4,0,4
0,1.20328500005417,39,1,1,1,0.5,4,0,4
0,0.388323599938303,40,1,1,1,0.5,4,0,4
0,0.535581999924034,41,0,1,1,0.5,4,0,4
0,0.534059100085869,42,0,1,1,0.5,4,0,4
0,0.454559599980712,43,0,1,1,0.5,4,0,4
1,0.38322119996883,44,1,1,1,0.5,4,0,4
1,0.343807300087065,45,1,1,1,0.5,4,0,4
1,0.719323900062591,46,1,1,1,0.5,4,0,4
1,0.502418699907139,47,1,1,1,0.5,4,0,4
1,0.513973100110889,48,1,1,1,0.5,4,0,4
1,0.44818970002234,49,1,1,1,0.5,4,0,4
1,0.460507899988443,50,1,1,1,0.5,4,0,4
1,0.377850400051102,51,1,1,1,0.5,4,0,4
1,0.336620900081471,52,1,1,1,0.5,4,0,4
1,0.364770599873737,53,1,1,1,0.5,4,0,4
1,0.406130299903452,54,1,1,1,0.5,4,0,4
1,0.506643800064921,55,1,1,1,0.5,4,0,4
0,0.24804940004833,56,0,1,1,0.5,4,0,4
1,0.609316800022498,57,1,1,1,0.5,4,0,4
1,0.460917200194672,58,1,1,1,0.5,4,0,4
1,0.440474199829623,59,1,1,1,0.5,4,0,4
1,0.480825199978426,60,1,1,1,0.5,4,0,4
1,0.295034900074825,61,1,1,1,0.5,4,0,4
1,0.323338599875569,62,1,1,1,0.5,4,0,4
0,0.281012000050396,63,0,1,1,0.5,4,0,4
1,0.689376800088212,64,1,1,1,0.5,4,0,4
1,0.4132298999466,65,1,1,1,0.5,4,0,4
1,0.444514400092885,66,1,1,1,0.5,4,0,4
1,0.379063799977303,67,1,1,1,0.5,4,0,4
1,0.338432400021702,68,1,1,1,0.5,4,0,4
1,0.397286500083283,69,1,1,1,0.5,4,0,4
1,0.552017000038177,70,1,1,1,0.5,4,0,4
0,0.449194499989972,71,0,1,1,0.5,4,0,4
1,0.458047099877149,72,1,1,1,0.5,4,0,4
1,0.495651900069788,73,1,1,1,0.5,4,0,4
1,0.427818600088358,74,1,1,1,0.5,4,0,4
1,0.446313200052828,75,0,1,1,0.5,4,0,4
1,0.53363039996475,76,1,1,1,0.5,4,0,4
1,0.452056299895048,77,1,1,1,0.5,4,0,4
1,0.406493700109422,78,1,1,1,0.5,4,0,4
1,0.468578799860552,79,1,1,1,0.5,4,0,4
1,0.451887000119314,80,1,1,1,0.5,4,0,4
1,0.438932500081137,81,0,1,1,0.5,4,0,4
1,0.457344300113618,82,0,1,1,0.5,4,0,4
0,0.329575599869713,83,1,1,1,0.5,4,0,4
0,0.527097400045022,84,1,1,1,0.5,4,0,4
0,0.392295100027695,85,1,1,1,0.5,4,0,4
0,0.600431900005788,86,1,1,1,0.5,4,0,4
0,0.481784399831668,87,1,1,1,0.5,4,0,4
0,0.370572900166735,88,1,1,1,0.5,4,0,4
0,0.36597969988361,89,1,1,1,0.5,4,0,4
0,0.367018499877304,90,1,1,1,0.5,4,0,4
0,0.295824799919501,91,1,1,1,0.5,4,0,4
0,0.323881400050595,92,1,1,1,0.5,4,0,4
0,0.289446800015867,93,1,1,1,0.5,4,0,4
1,0.262457499979064,94,0,1,1,0.5,4,0,4
0,0.410262499935925,95,0,1,1,0.5,4,0,4
0,0.479820299893618,96,1,1,1,0.5,4,0,4
0,5.22676289989613,97,1,1,1,0.5,4,0,4
0,1.69306909991428,98,1,1,1,0.5,4,0,4
0,0.741069799987599,99,1,1,1,0.5,4,0,4
0,0.53337060008198,100,1,1,1,0.5,4,0,4
0,0.779077000217512,101,1,1,1,0.5,4,0,4
0,0.378290199907497,102,1,1,1,0.5,4,0,4
0,0.426697200164199,103,1,1,1,0.5,4,0,4
0,0.486590900225565,104,1,1,1,0.5,4,0,4
0,0.416317699942738,105,1,1,1,0.5,4,0,4
1,0.429619999835268,106,0,1,1,0.5,4,0,4
0,0.357744700042531,107,1,1,1,0.5,4,0,4
0,0.379336100071669,108,1,1,1,0.5,4,0,4
1,0.316499100066721,109,0,1,1,0.5,4,0,4
0,0.570362899918109,110,1,1,1,0.5,4,0,4
0,0.362363599939272,111,0,1,1,0.5,4,0,4
0,0.678780600195751,112,1,1,1,0.5,4,0,4
0,0.468480800045654,113,0,1,1,0.5,4,0,4
1,0.551595799857751,114,0,1,1,0.5,4,0,4
1,0.556506499880925,115,0,1,1,0.5,4,0,4
0,0.563107599969953,116,1,1,1,0.5,4,0,4
0,0.538159599993378,117,1,1,1,0.5,4,0,4
0,0.447045400040224,118,1,1,1,0.5,4,0,4
0,0.627668500179425,119,1,1,1,0.5,4,0,4
0,0.495463599916548,120,1,1,1,0.5,4,0,4
0,0.63742440007627,121,0,1,1,0.5,4,0,4
0,0.364961900049821,122,0,1,1,0.5,4,0,4
0,0.362636900041252,123,0,1,1,0.5,4,0,4
1,0.649235999910161,124,1,1,1,0.5,4,0,4
1,0.492250200128183,125,1,1,1,0.5,4,0,4
1,0.624369100201875,126,1,1,1,0.5,4,0,4
1,0.542091500014067,127,0,1,1,0.5,4,0,4
1,0.471619100077078,128,1,1,1,0.5,4,0,4
1,0.444490399910137,129,1,1,1,0.5,4,0,4
1,0.420180199900642,130,1,1,1,0.5,4,0,4
1,0.582036300096661,131,0,1,1,0.5,4,0,4
1,0.357276699971408,132,1,1,1,0.5,4,0,4
1,0.570479799993336,133,1,1,1,0.5,4,0,4
1,0.345954700140283,134,1,1,1,0.5,4,0,4
1,0.452291599940509,135,1,1,1,0.5,4,0,4
1,0.413158999988809,136,1,1,1,0.5,4,0,4
1,0.5132231998723,137,1,1,1,0.5,4,0,4
1,0.439077500021085,138,1,1,1,0.5,4,0,4
1,0.768405999988318,139,0,1,1,0.5,4,0,4
1,0.454201299929991,140,1,1,1,0.5,4,0,4
1,0.404976699966937,141,1,1,1,0.5,4,0,4
1,0.359132499899715,142,1,1,1,0.5,4,0,4
1,0.585077000083402,143,1,1,1,0.5,4,0,4
1,0.441104700090364,144,1,1,1,0.5,4,0,4
1,0.466543600196019,145,1,1,1,0.5,4,0,4
1,0.445952600101009,146,1,1,1,0.5,4,0,4
1,0.331379699986428,147,1,1,1,0.5,4,0,4
1,0.322032399941236,148,1,1,1,0.5,4,0,4
1,0.350847200024873,149,1,1,1,0.5,4,0,4
1,0.228388299932703,150,1,1,1,0.5,4,0,4
0,0.276394600048661,151,0,1,1,0.5,4,0,4
1,0.431452200049534,152,1,1,1,0.5,4,0,4
1,0.377459600102156,153,1,1,1,0.5,4,0,4
1,0.516192800132558,154,0,1,1,0.5,4,0,4
1,0.456059599993751,155,1,1,1,0.5,4,0,4
1,0.358918200014159,156,1,1,1,0.5,4,0,4
1,0.465705699985847,157,1,1,1,0.5,4,0,4
1,0.790735699934885,158,1,1,1,0.5,4,0,4
1,0.411961199948564,159,1,1,1,0.5,4,0,4
1,0.677556499838829,160,1,1,1,0.5,4,0,4
0,0.761778000043705,1,1,1,0,0.5,2,0,4
0,0.568880300037563,2,0,1,0,0.5,2,0,4
0,0.339945900021121,3,1,1,0,0.5,2,0,4
0,0.460884899832308,4,0,1,0,0.5,2,0,4
0,0.367211800068617,5,1,1,0,0.5,2,0,4
0,0.323914699954912,6,1,1,0,0.5,2,0,4
0,0.553811199963093,7,1,1,0,0.5,2,0,4
0,0.66135840001516,8,1,1,0,0.5,2,0,4
1,0.954037500079721,9,1,1,0,0.5,2,0,4
1,0.582154500065371,10,1,1,0,0.5,2,0,4
1,0.902347099967301,11,0,1,0,0.5,2,0,4
1,0.487094099866226,12,1,1,0,0.5,2,0,4
1,0.483967700041831,13,1,1,0,0.5,2,0,4
1,0.494204299990088,14,0,1,0,0.5,2,0,4
1,0.472787900129333,15,0,1,0,0.5,2,0,4
1,0.46031739981845,16,0,1,0,0.5,2,0,4
1,0.445144100114703,17,0,1,0,0.5,2,0,4
0,0.596791200106964,18,0,1,0,0.5,2,0,4
0,0.496212099911645,19,1,1,0,0.5,2,0,4
0,0.432566500036046,20,0,1,0,0.5,2,0,4
0,1.10403419984505,21,1,1,0,0.5,2,0,4
0,0.615798499900848,22,1,1,0,0.5,2,0,4
0,0.56915339990519,23,1,1,0,0.5,2,0,4
0,0.344030400039628,24,0,1,0,0.5,2,0,4
0,0.486205300083384,25,1,1,0,0.5,2,0,4
0,0.444514499977231,26,1,1,0,0.5,2,0,4
0,0.863842899911106,27,1,1,0,0.5,2,0,4
0,0.260419699829072,28,1,1,0,0.5,2,0,4
1,0.405146299861372,29,0,1,0,0.5,2,0,4
1,0.42099369992502,30,0,1,0,0.5,2,0,4
0,0.247232499998063,31,1,1,0,0.5,2,0,4
0,0.814564799889922,32,1,1,0,0.5,2,0,4
0,0.467283700127155,33,1,1,0,0.5,2,0,4
0,0.753203900065273,34,1,1,0,0.5,2,0,4
1,0.557063299929723,35,0,1,0,0.5,2,0,4
0,0.451979600125924,36,1,1,0,0.5,2,0,4
0,0.335359999909997,37,1,1,0,0.5,2,0,4
0,0.596060000127181,38,1,1,0,0.5,2,0,4
0,0.304481799947098,39,0,1,0,0.5,2,0,4
1,1.60765099991113,40,0,1,0,0.5,2,0,4
1,0.84264579997398,41,1,1,0,0.5,2,0,4
1,1.21948336364414,42,1,1,0,0.5,2,0,4
0,0.407402699813247,43,0,1,0,0.5,2,0,4
1,0.488660900155082,44,1,1,0,0.5,2,0,4
1,4.06408579996787,45,1,1,0,0.5,2,0,4
0,1.38346995840614,46,0,1,0,0.5,2,0,4
1,1.21229345400663,47,1,1,0,0.5,2,0,4
0,0.656374299898744,48,0,1,0,0.5,2,0,4
1,0.316865400178358,49,1,1,0,0.5,2,0,4
0,0.251988400006667,50,0,1,0,0.5,2,0,4
1,0.266331299906597,51,1,1,0,0.5,2,0,4
0,0.248426900012419,52,0,1,0,0.5,2,0,4
1,0.55890280008316,53,1,1,0,0.5,2,0,4
1,0.263164000120014,54,1,1,0,0.5,2,0,4
0,0.193326799897477,55,0,1,0,0.5,2,0,4
0,0.21623279992491,56,0,1,0,0.5,2,0,4
1,0.269766299985349,57,1,1,0,0.5,2,0,4
1,0.316606899956241,58,1,1,0,0.5,2,0,4
0,0.257395199965686,59,0,1,0,0.5,2,0,4
1,0.310547099914402,60,1,1,0,0.5,2,0,4
1,0.195069500012323,61,1,1,0,0.5,2,0,4
0,0.215843300102279,62,0,1,0,0.5,2,0,4
1,0.398632899858058,63,1,1,0,0.5,2,0,4
0,0.345715099945664,64,0,1,0,0.5,2,0,4
1,0.229888899950311,65,1,1,0,0.5,2,0,4
1,0.215012500062585,66,1,1,0,0.5,2,0,4
1,0.234811199828982,67,1,1,0,0.5,2,0,4
0,0.23619159986265,68,0,1,0,0.5,2,0,4
0,0.336520799901336,69,0,1,0,0.5,2,0,4
0,0.499596199952066,70,0,1,0,0.5,2,0,4
1,0.446246599778533,71,1,1,0,0.5,2,0,4
1,0.324526499956846,72,1,1,0,0.5,2,0,4
0,0.289648399921134,73,0,1,0,0.5,2,0,4
0,0.276192199904472,74,0,1,0,0.5,2,0,4
0,0.241785400081426,75,0,1,0,0.5,2,0,4
0,0.344360999995843,76,0,1,0,0.5,2,0,4
1,0.458412500098348,77,1,1,0,0.5,2,0,4
1,0.444901400012895,78,1,1,0,0.5,2,0,4
1,0.4592722998932,79,1,1,0,0.5,2,0,4
1,0.411218699999154,80,1,1,0,0.5,2,0,4
1,0.372301899828017,81,0,1,0,0.5,2,0,4
0,1.27899739984423,82,1,1,0,0.5,2,0,4
0,0.386206799885258,83,1,1,0,0.5,2,0,4
0,0.492167399963364,84,1,1,0,0.5,2,0,4
0,0.404852999839932,85,0,1,0,0.5,2,0,4
1,0.405373299960047,86,0,1,0,0.5,2,0,4
1,0.271007700124756,87,0,1,0,0.5,2,0,4
0,0.289261299883947,88,1,1,0,0.5,2,0,4
1,0.418822200037539,89,0,1,0,0.5,2,0,4
1,0.324720199918374,90,0,1,0,0.5,2,0,4
1,0.460284600034356,91,0,1,0,0.5,2,0,4
0,0.467227499932051,92,1,1,0,0.5,2,0,4
0,0.331515900092199,93,1,1,0,0.5,2,0,4
0,0.280535700032488,94,1,1,0,0.5,2,0,4
1,0.2428470000159,95,1,1,0,0.5,2,0,4
1,0.259427000069991,96,0,1,0,0.5,2,0,4
0,0.534176199929789,97,1,1,0,0.5,2,0,4
1,0.951525499811396,98,0,1,0,0.5,2,0,4
0,0.119454900035635,99,1,1,0,0.5,2,0,4
1,0.208902199985459,100,0,1,0,0.5,2,0,4
1,0.220745299942791,101,0,1,0,0.5,2,0,4
0,0.270063300151378,102,1,1,0,0.5,2,0,4
1,0.528032599948347,103,0,1,0,0.5,2,0,4
0,0.534783700015396,104,1,1,0,0.5,2,0,4
1,0.534699500072748,105,0,1,0,0.5,2,0,4
0,0.262783900136128,106,1,1,0,0.5,2,0,4
0,0.344005400082096,107,1,1,0,0.5,2,0,4
0,0.281882799929008,108,1,1,0,0.5,2,0,4
0,0.550512500107288,109,1,1,0,0.5,2,0,4
1,0.549430599901825,110,0,1,0,0.5,2,0,4
1,0.249738199869171,111,0,1,0,0.5,2,0,4
1,0.277092000003904,112,0,1,0,0.5,2,0,4
1,0.486421999987215,113,0,1,0,0.5,2,0,4
0,0.3775931999553,114,0,1,0,0.5,2,0,4
0,0.391334699932486,115,1,1,0,0.5,2,0,4
1,1.28138947526582,116,0,1,0,0.5,2,0,4
1,0.510956800077111,117,0,1,0,0.5,2,0,4
0,0.345920899882913,118,0,1,0,0.5,2,0,4
0,0.424629000015557,119,1,1,0,0.5,2,0,4
0,0.30864610010758,120,1,1,0,0.5,2,0,4
0,0.453824799973518,121,0,1,0,0.5,2,0,4
0,0.399144400143996,122,0,1,0,0.5,2,0,4
0,0.276338299969211,123,1,1,0,0.5,2,0,4
1,0.291469299932942,124,1,1,0,0.5,2,0,4
1,0.256041900021955,125,1,1,0,0.5,2,0,4
0,0.358083800179884,126,0,1,0,0.5,2,0,4
0,0.432718600146472,127,1,1,0,0.5,2,0,4
1,0.330373000120744,128,1,1,0,0.5,2,0,4
0,0.264703000197187,129,0,1,0,0.5,2,0,4
0,0.339483299991116,130,0,1,0,0.5,2,0,4
1,0.330982800107449,131,1,1,0,0.5,2,0,4
0,0.28848240012303,132,0,1,0,0.5,2,0,4
1,0.337357399985194,133,1,1,0,0.5,2,0,4
1,0.49773530010134,134,1,1,0,0.5,2,0,4
1,0.18663869984448,135,1,1,0,0.5,2,0,4
1,0.221102099865675,136,1,1,0,0.5,2,0,4
1,0.173363899812102,137,1,1,0,0.5,2,0,4
1,0.227294099982828,138,1,1,0,0.5,2,0,4
1,1.07999911667641,139,1,1,0,0.5,2,0,4
0,1.08050819998607,140,0,1,0,0.5,2,0,4
0,0.398801000090316,141,0,1,0,0.5,2,0,4
0,0.271084300009534,142,0,1,0,0.5,2,0,4
0,0.239613499958068,143,0,1,0,0.5,2,0,4
1,0.214866199996322,144,1,1,0,0.5,2,0,4
0,0.237940399907529,145,0,1,0,0.5,2,0,4
1,0.140312800183892,146,0,1,0,0.5,2,0,4
1,0.201137900119647,147,1,1,0,0.5,2,0,4
1,0.491191099863499,148,1,1,0,0.5,2,0,4
1,0.269855000078678,149,1,1,0,0.5,2,0,4
1,0.256300800014287,150,1,1,0,0.5,2,0,4
1,0.206866700202227,151,1,1,0,0.5,2,0,4
1,0.209537500049919,152,0,1,0,0.5,2,0,4
0,0.39316190010868,153,0,1,0,0.5,2,0,4
1,0.38734079990536,154,1,1,0,0.5,2,0,4
1,0.396540000103414,155,1,1,0,0.5,2,0,4
0,0.271645299857482,156,0,1,0,0.5,2,0,4
1,1.66511020017788,157,1,1,0,0.5,2,0,4
0,1.01638049981557,158,0,1,0,0.5,2,0,4
0,0.317372099962086,159,0,1,0,0.5,2,0,4
0,0.28236040007323,160,0,1,0,0.5,2,0,4
0,2.93075959989801,1,1,1,0,0.5,2,0,5
0,2.19446419994347,2,1,1,0,0.5,2,0,5
0,1.25013240007684,3,1,1,0,0.5,2,0,5
0,2.0180665999651,4,0,1,0,0.5,2,0,5
0,1.51956819999032,5,1,1,0,0.5,2,0,5
0,1.82659430010244,6,1,1,0,0.5,2,0,5
0,1.75360619998537,7,1,1,0,0.5,2,0,5
0,1.18667940003797,8,1,1,0,0.5,2,0,5
0,2.81550609995611,9,0,1,0,0.5,2,0,5
0,1.42937789997086,10,1,1,0,0.5,2,0,5
0,1.87584160012193,11,1,1,0,0.5,2,0,5
0,1.48465829994529,12,1,1,0,0.5,2,0,5
0,1.3765829000622,13,1,1,0,0.5,2,0,5
0,1.67092840000987,14,1,1,0,0.5,2,0,5
0,1.40724520012736,15,1,1,0,0.5,2,0,5
0,1.66283860011026,16,1,1,0,0.5,2,0,5
0,2.50204909988679,17,1,1,0,0.5,2,0,5
0,1.57412009988911,18,1,1,0,0.5,2,0,5
0,1.22713159979321,19,1,1,0,0.5,2,0,5
0,1.35465450002812,20,1,1,0,0.5,2,0,5
0,1.5100879999809,21,1,1,0,0.5,2,0,5
0,1.38986920006573,22,1,1,0,0.5,2,0,5
0,1.19701200001873,23,0,1,0,0.5,2,0,5
0,1.52758149988949,24,1,1,0,0.5,2,0,5
0,1.92799019999802,25,1,1,0,0.5,2,0,5
0,1.25529800006188,26,1,1,0,0.5,2,0,5
0,2.5509888001252,27,0,1,0,0.5,2,0,5
0,3.96778699988499,28,1,1,0,0.5,2,0,5
0,1.37126210005954,29,1,1,0,0.5,2,0,5
1,3.18300520000048,30,0,1,0,0.5,2,0,5
0,2.25622770003974,31,1,1,0,0.5,2,0,5
0,1.82641600002535,32,1,1,0,0.5,2,0,5
0,1.05455240001902,33,1,1,0,0.5,2,0,5
0,1.91178410011344,34,1,1,0,0.5,2,0,5
0,1.71859880001284,35,0,1,0,0.5,2,0,5
0,2.80821439996362,36,1,1,0,0.5,2,0,5
0,1.84967150003649,37,1,1,0,0.5,2,0,5
0,1.84899319987744,38,0,1,0,0.5,2,0,5
0,3.13037130003795,39,1,1,0,0.5,2,0,5
0,2.20557569991797,40,1,1,0,0.5,2,0,5
0,1.62160440022126,41,0,1,0,0.5,2,0,5
0,1.52404629997909,42,0,1,0,0.5,2,0,5
0,2.05584549997002,43,0,1,0,0.5,2,0,5
1,2.41158500011079,44,1,1,0,0.5,2,0,5
1,1.20852520014159,45,1,1,0,0.5,2,0,5
1,1.34486309997737,46,1,1,0,0.5,2,0,5
1,2.60960349999368,47,1,1,0,0.5,2,0,5
1,2.77588530001231,48,0,1,0,0.5,2,0,5
1,1.90755509980954,49,1,1,0,0.5,2,0,5
1,1.14008900010958,50,0,1,0,0.5,2,0,5
1,5.25605500000529,51,1,1,0,0.5,2,0,5
1,1.51140019996092,52,1,1,0,0.5,2,0,5
0,2.38859620015137,53,0,1,0,0.5,2,0,5
1,2.08002510014921,54,1,1,0,0.5,2,0,5
1,2.32810809998773,55,1,1,0,0.5,2,0,5
1,1.43621790013276,56,1,1,0,0.5,2,0,5
0,2.49543130001985,57,0,1,0,0.5,2,0,5
0,1.96487419982441,58,0,1,0,0.5,2,0,5
1,1.83906459994614,59,1,1,0,0.5,2,0,5
1,1.64877839991823,60,1,1,0,0.5,2,0,5
1,2.15015699993819,61,1,1,0,0.5,2,0,5
1,1.00643930002116,62,0,1,0,0.5,2,0,5
1,1.81420869985595,63,1,1,0,0.5,2,0,5
1,2.61085890000686,64,1,1,0,0.5,2,0,5
1,2.25636349990964,65,1,1,0,0.5,2,0,5
1,3.53300549997948,66,1,1,0,0.5,2,0,5
1,1.51364340004511,67,1,1,0,0.5,2,0,5
1,1.60316530009732,68,1,1,0,0.5,2,0,5
1,1.56209120014682,69,1,1,0,0.5,2,0,5
1,1.48297329992056,70,1,1,0,0.5,2,0,5
1,1.41725869989023,71,1,1,0,0.5,2,0,5
1,1.95736510003917,72,0,1,0,0.5,2,0,5
1,2.46969629987143,73,1,1,0,0.5,2,0,5
1,1.34532779990695,74,1,1,0,0.5,2,0,5
1,1.6014624000527,75,1,1,0,0.5,2,0,5
0,3.08144299988635,76,0,1,0,0.5,2,0,5
1,4.02934709982947,77,1,1,0,0.5,2,0,5
1,1.36468830006197,78,1,1,0,0.5,2,0,5
1,2.26424589985982,79,1,1,0,0.5,2,0,5
1,1.37406099983491,80,1,1,0,0.5,2,0,5
1,1.7727227001451,81,0,1,0,0.5,2,0,5
1,2.89210890000686,82,0,1,0,0.5,2,0,5
1,0.749168399954215,83,0,1,0,0.5,2,0,5
1,0.817754599964246,84,0,1,0,0.5,2,0,5
0,1.82984200003557,85,1,1,0,0.5,2,0,5
0,0.691980700008571,86,0,1,0,0.5,2,0,5
0,5.18050419981591,87,1,1,0,0.5,2,0,5
0,1.22835560003296,88,0,1,0,0.5,2,0,5
0,1.22681719996035,89,1,1,0,0.5,2,0,5
0,1.27270129998215,90,1,1,0,0.5,2,0,5
0,2.72627700003795,91,1,1,0,0.5,2,0,5
0,1.54783120006323,92,1,1,0,0.5,2,0,5
0,1.16220169980079,93,1,1,0,0.5,2,0,5
0,1.75727550010197,94,1,1,0,0.5,2,0,5
0,2.01849810010754,95,1,1,0,0.5,2,0,5
1,2.33906280016527,96,0,1,0,0.5,2,0,5
1,3.77504250011407,97,1,1,0,0.5,2,0,5
1,3.02501529990695,98,0,1,0,0.5,2,0,5
0,3.05228830012493,99,0,1,0,0.5,2,0,5
0,0.988830800168216,100,1,1,0,0.5,2,0,5
0,4.77863329998218,101,1,1,0,0.5,2,0,5
0,2.30462629999965,102,1,1,0,0.5,2,0,5
0,1.4117573001422,103,1,1,0,0.5,2,0,5
0,1.31332980003208,104,1,1,0,0.5,2,0,5
0,2.47228009998798,105,1,1,0,0.5,2,0,5
0,1.71615699981339,106,1,1,0,0.5,2,0,5
0,2.8065395001322,107,1,1,0,0.5,2,0,5
0,2.2169049999211,108,1,1,0,0.5,2,0,5
0,2.26542839989997,109,0,1,0,0.5,2,0,5
0,2.61332400003448,110,1,1,0,0.5,2,0,5
0,1.70961569994688,111,1,1,0,0.5,2,0,5
0,1.30748269986361,112,1,1,0,0.5,2,0,5
0,2.08676180010661,113,1,1,0,0.5,2,0,5
0,2.3478801001329,114,1,1,0,0.5,2,0,5
0,1.198321999982,115,1,1,0,0.5,2,0,5
0,1.70828619995154,116,1,1,0,0.5,2,0,5
0,0.991264499956742,117,0,1,0,0.5,2,0,5
1,3.24052410013974,118,0,1,0,0.5,2,0,5
1,0.888319599907845,119,0,1,0,0.5,2,0,5
0,1.55815369985066,120,1,1,0,0.5,2,0,5
0,1.93804589984939,121,0,1,0,0.5,2,0,5
1,2.6498618000187,122,1,1,0,0.5,2,0,5
1,0.936530400067568,123,1,1,0,0.5,2,0,5
1,1.45353769999929,124,1,1,0,0.5,2,0,5
1,1.72246540011838,125,1,1,0,0.5,2,0,5
1,2.18675959995016,126,0,1,0,0.5,2,0,5
0,2.04339920007624,127,0,1,0,0.5,2,0,5
0,0.538280799984932,128,0,1,0,0.5,2,0,5
1,2.76196880009957,129,1,1,0,0.5,2,0,5
1,1.43455890007317,130,1,1,0,0.5,2,0,5
1,1.74680200009607,131,1,1,0,0.5,2,0,5
1,2.13882370013744,132,1,1,0,0.5,2,0,5
1,1.43309370009229,133,1,1,0,0.5,2,0,5
1,1.26950190006755,134,1,1,0,0.5,2,0,5
1,1.29730360000394,135,1,1,0,0.5,2,0,5
1,1.40840739989653,136,1,1,0,0.5,2,0,5
1,1.22885719989426,137,1,1,0,0.5,2,0,5
1,1.6058412999846,138,1,1,0,0.5,2,0,5
1,1.04939899989404,139,0,1,0,0.5,2,0,5
1,3.20479239989072,140,1,1,0,0.5,2,0,5
1,1.27858819998801,141,1,1,0,0.5,2,0,5
1,2.25330560002476,142,1,1,0,0.5,2,0,5
1,1.8607474998571,143,1,1,0,0.5,2,0,5
0,2.31981780007482,144,1,1,0,0.5,2,0,5
0,2.6317133998964,145,0,1,0,0.5,2,0,5
1,2.85402489989065,146,1,1,0,0.5,2,0,5
1,2.10356239997782,147,1,1,0,0.5,2,0,5
1,2.01273389998823,148,1,1,0,0.5,2,0,5
1,2.131935399957,149,1,1,0,0.5,2,0,5
1,2.36687829997391,150,1,1,0,0.5,2,0,5
0,1.59374730009586,151,1,1,0,0.5,2,0,5
1,3.31158580002375,152,1,1,0,0.5,2,0,5
1,1.59850870002992,153,0,1,0,0.5,2,0,5
1,1.84112330013886,154,1,1,0,0.5,2,0,5
1,1.21671289997175,155,0,1,0,0.5,2,0,5
1,5.99990799999796,156,1,1,0,0.5,2,0,5
1,1.76130779995583,157,1,1,0,0.5,2,0,5
1,1.67432280001231,158,1,1,0,0.5,2,0,5
1,1.30285949981771,159,1,1,0,0.5,2,0,5
1,1.47302749985829,160,1,1,0,0.5,2,0,5
0,1.51352820009924,1,1,1,1,0.5,4,0,5
0,1.33537630015053,2,0,1,1,0.5,4,0,5
0,3.2917420999147,3,1,1,1,0.5,4,0,5
0,2.28343000006862,4,1,1,1,0.5,4,0,5
0,1.30585859995335,5,1,1,1,0.5,4,0,5
0,2.56729739997536,6,1,1,1,0.5,4,0,5
0,1.27072159992531,7,1,1,1,0.5,4,0,5
0,1.86981830000877,8,1,1,1,0.5,4,0,5
0,1.97722580004483,9,1,1,1,0.5,4,0,5
0,1.53590209991671,10,1,1,1,0.5,4,0,5
0,1.98369290004484,11,1,1,1,0.5,4,0,5
0,2.739077599952,12,1,1,1,0.5,4,0,5
0,1.17193890013732,13,1,1,1,0.5,4,0,5
0,1.55492780008353,14,1,1,1,0.5,4,0,5
0,1.34125410020351,15,1,1,1,0.5,4,0,5
0,1.93284949986264,16,1,1,1,0.5,4,0,5
0,1.43467109999619,17,1,1,1,0.5,4,0,5
0,1.74501279997639,18,1,1,1,0.5,4,0,5
0,1.47930069989525,19,1,1,1,0.5,4,0,5
0,1.28990489989519,20,1,1,1,0.5,4,0,5
0,1.9156010998413,21,1,1,1,0.5,4,0,5
0,1.91683700005524,22,1,1,1,0.5,4,0,5
0,1.96518240007572,23,1,1,1,0.5,4,0,5
0,1.9561904000584,24,0,1,1,0.5,4,0,5
0,3.4478967001196,25,1,1,1,0.5,4,0,5
0,2.65650429995731,26,1,1,1,0.5,4,0,5
0,1.97712659998797,27,1,1,1,0.5,4,0,5
0,1.74295159988105,28,1,1,1,0.5,4,0,5
0,1.43356649996713,29,1,1,1,0.5,4,0,5
0,2.00408990005963,30,0,1,1,0.5,4,0,5
0,4.50521570001729,31,1,1,1,0.5,4,0,5
0,1.71817069989629,32,1,1,1,0.5,4,0,5
0,1.39499039994553,33,1,1,1,0.5,4,0,5
0,1.66476120008156,34,1,1,1,0.5,4,0,5
0,1.73608789988793,35,1,1,1,0.5,4,0,5
0,1.92226559994742,36,1,1,1,0.5,4,0,5
0,1.92367319995537,37,1,1,1,0.5,4,0,5
0,1.5491319000721,38,1,1,1,0.5,4,0,5
0,1.75280490005389,39,1,1,1,0.5,4,0,5
0,1.85425710002892,40,0,1,1,0.5,4,0,5
0,4.01371550001204,41,0,1,1,0.5,4,0,5
0,2.58622659998946,42,0,1,1,0.5,4,0,5
0,5.78171839984134,43,0,1,1,0.5,4,0,5
0,2.59358840016648,44,0,1,1,0.5,4,0,5
0,7.21396389999427,45,0,1,1,0.5,4,0,5
0,7.74553079996258,46,0,1,1,0.5,4,0,5
1,1.19577244657459,47,1,1,1,0.5,4,0,5
1,1.71185899991542,48,0,1,1,0.5,4,0,5
1,2.9955847999081,49,1,1,1,0.5,4,0,5
1,2.38694369979203,50,0,1,1,0.5,4,0,5
0,4.40323399985209,51,0,1,1,0.5,4,0,5
0,6.09784569987096,52,0,1,1,0.5,4,0,5
1,2.89635160006583,53,1,1,1,0.5,4,0,5
1,1.84836209984496,54,1,1,1,0.5,4,0,5
0,3.54772999999113,55,0,1,1,0.5,4,0,5
1,3.54111919994466,56,1,1,1,0.5,4,0,5
1,1.67741120001301,57,1,1,1,0.5,4,0,5
1,2.02205009991303,58,0,1,1,0.5,4,0,5
1,4.58435750007629,59,1,1,1,0.5,4,0,5
1,2.88384680007584,60,1,1,1,0.5,4,0,5
1,2.22297160001472,61,1,1,1,0.5,4,0,5
1,1.65990109997801,62,1,1,1,0.5,4,0,5
1,2.81956340000033,63,1,1,1,0.5,4,0,5
0,3.00794000015594,64,0,1,1,0.5,4,0,5
1,1.99071780010127,65,1,1,1,0.5,4,0,5
1,1.50503850006498,66,1,1,1,0.5,4,0,5
1,2.17358989990316,67,1,1,1,0.5,4,0,5
1,2.01603319984861,68,1,1,1,0.5,4,0,5
1,2.82986130006611,69,1,1,1,0.5,4,0,5
0,4.19422920001671,70,1,1,1,0.5,4,0,5
1,2.70907659991644,71,0,1,1,0.5,4,0,5
1,2.0160150998272,72,1,1,1,0.5,4,0,5
1,1.28410889999941,73,1,1,1,0.5,4,0,5
1,3.48823949997313,74,1,1,1,0.5,4,0,5
1,1.79032829985954,75,1,1,1,0.5,4,0,5
0,3.16124040004797,76,0,1,1,0.5,4,0,5
1,2.67453700001352,77,1,1,1,0.5,4,0,5
1,1.69985849992372,78,1,1,1,0.5,4,0,5
1,2.26434460002929,79,1,1,1,0.5,4,0,5
1,3.97724599996582,80,1,1,1,0.5,4,0,5
1,1.89501269999892,81,0,1,1,0.5,4,0,5
0,3.24123040004633,82,1,1,1,0.5,4,0,5
0,1.23428059997968,83,1,1,1,0.5,4,0,5
0,1.18173420010135,84,1,1,1,0.5,4,0,5
0,3.17468890012242,85,1,1,1,0.5,4,0,5
0,3.68919890001416,86,1,1,1,0.5,4,0,5
0,2.17528260010295,87,1,1,1,0.5,4,0,5
0,1.28191740019247,88,0,1,1,0.5,4,0,5
0,7.70171310007572,89,1,1,1,0.5,4,0,5
0,4.05280809989199,90,1,1,1,0.5,4,0,5
0,1.6558284999337,91,0,1,1,0.5,4,0,5
1,1.84032299998216,92,0,1,1,0.5,4,0,5
1,1.29794205216634,93,0,1,1,0.5,4,0,5
0,2.3505100000184,94,0,1,1,0.5,4,0,5
1,3.62368479999714,95,0,1,1,0.5,4,0,5
0,3.57272409996949,96,1,1,1,0.5,4,0,5
0,1.70554160000756,97,0,1,1,0.5,4,0,5
0,1.04041799996048,98,1,1,1,0.5,4,0,5
0,4.03760519996285,99,1,1,1,0.5,4,0,5
0,1.60161849996075,100,1,1,1,0.5,4,0,5
0,1.42667469987646,101,1,1,1,0.5,4,0,5
1,2.0517733998131,102,0,1,1,0.5,4,0,5
0,1.6714360001497,103,1,1,1,0.5,4,0,5
0,1.93551869993098,104,1,1,1,0.5,4,0,5
0,2.67729440005496,105,1,1,1,0.5,4,0,5
0,2.21183649986051,106,1,1,1,0.5,4,0,5
0,1.72139009996317,107,1,1,1,0.5,4,0,5
0,1.36679370002821,108,0,1,1,0.5,4,0,5
0,1.72479840018787,109,1,1,1,0.5,4,0,5
0,1.33767149993218,110,1,1,1,0.5,4,0,5
0,2.4343266999349,111,1,1,1,0.5,4,0,5
0,0.941452800063416,112,1,1,1,0.5,4,0,5
0,2.63097990001552,113,1,1,1,0.5,4,0,5
0,1.60831300006248,114,0,1,1,0.5,4,0,5
0,3.02462819986977,115,1,1,1,0.5,4,0,5
0,1.52570120012388,116,0,1,1,0.5,4,0,5
0,3.23341330001131,117,1,1,1,0.5,4,0,5
0,2.06706269993447,118,1,1,1,0.5,4,0,5
0,2.16170269995928,119,0,1,1,0.5,4,0,5
0,1.62982629984617,120,1,1,1,0.5,4,0,5
0,1.72764599998482,121,0,1,1,0.5,4,0,5
0,1.81507969996892,122,0,1,1,0.5,4,0,5
1,1.97381949983537,123,1,1,1,0.5,4,0,5
1,3.94195969984867,124,1,1,1,0.5,4,0,5
1,2.23152239993215,125,1,1,1,0.5,4,0,5
1,5.47895419993438,126,0,1,1,0.5,4,0,5
1,2.09833159996197,127,1,1,1,0.5,4,0,5
1,3.83164769993164,128,1,1,1,0.5,4,0,5
1,1.80372680001892,129,1,1,1,0.5,4,0,5
1,1.57018289994448,130,0,1,1,0.5,4,0,5
0,3.07128989999183,131,0,1,1,0.5,4,0,5
0,1.53383859992027,132,0,1,1,0.5,4,0,5
1,2.40150170004927,133,1,1,1,0.5,4,0,5
1,1.15890529984608,134,1,1,1,0.5,4,0,5
0,3.53920160001144,135,0,1,1,0.5,4,0,5
0,3.01961760013364,136,0,1,1,0.5,4,0,5
0,4.52534499997273,137,0,1,1,0.5,4,0,5
1,3.45623350003734,138,1,1,1,0.5,4,0,5
1,4.58931130007841,139,1,1,1,0.5,4,0,5
1,2.35944150015712,140,1,1,1,0.5,4,0,5
1,3.91359660006128,141,1,1,1,0.5,4,0,5
1,1.480072400067,142,1,1,1,0.5,4,0,5
1,3.14412660012022,143,1,1,1,0.5,4,0,5
0,2.55840119998902,144,0,1,1,0.5,4,0,5
1,2.47458329983056,145,1,1,1,0.5,4,0,5
1,1.79721380001865,146,1,1,1,0.5,4,0,5
1,1.2563700999599,147,1,1,1,0.5,4,0,5
1,1.19157749996521,148,1,1,1,0.5,4,0,5
1,1.4710091999732,149,1,1,1,0.5,4,0,5
1,2.28391140000895,150,1,1,1,0.5,4,0,5
1,1.93806060007773,151,0,1,1,0.5,4,0,5
1,1.91034369985573,152,1,1,1,0.5,4,0,5
1,2.1648636998143,153,1,1,1,0.5,4,0,5
1,2.52446780004539,154,1,1,1,0.5,4,0,5
1,1.55052729998715,155,1,1,1,0.5,4,0,5
1,1.73417060007341,156,1,1,1,0.5,4,0,5
1,5.5365420000162,157,1,1,1,0.5,4,0,5
1,2.18472410016693,158,1,1,1,0.5,4,0,5
1,1.92740490008146,159,1,1,1,0.5,4,0,5
1,1.18895670003258,160,1,1,1,0.5,4,0,5
0,0.496805200120434,1,1,1,0,0.5,2,0,6
0,0.392516100080684,2,1,1,0,0.5,2,0,6
1,0.322074299911037,3,0,1,0,0.5,2,0,6
0,0.442246900172904,4,1,1,0,0.5,2,0,6
0,0.454643300035968,5,1,1,0,0.5,2,0,6
0,0.448162500048056,6,1,1,0,0.5,2,0,6
0,0.471729300217703,7,1,1,0,0.5,2,0,6
0,0.493745200103149,8,1,1,0,0.5,2,0,6
0,0.619732899824157,9,1,1,0,0.5,2,0,6
0,0.566504099871963,10,1,1,0,0.5,2,0,6
0,0.438607100164518,11,1,1,0,0.5,2,0,6
0,0.465924300020561,12,1,1,0,0.5,2,0,6
0,0.441382999997586,13,1,1,0,0.5,2,0,6
0,0.442292999941856,14,1,1,0,0.5,2,0,6
0,0.383832199964672,15,1,1,0,0.5,2,0,6
0,0.545231899945065,16,1,1,0,0.5,2,0,6
0,0.406934099970385,17,1,1,0,0.5,2,0,6
0,0.411433900007978,18,1,1,0,0.5,2,0,6
0,0.405823499895632,19,1,1,0,0.5,2,0,6
0,0.36875810008496,20,1,1,0,0.5,2,0,6
0,0.343168399995193,21,1,1,0,0.5,2,0,6
1,0.359703799942508,22,0,1,0,0.5,2,0,6
1,0.76015629991889,23,0,1,0,0.5,2,0,6
0,0.540856500156224,24,1,1,0,0.5,2,0,6
0,0.528274500044063,25,1,1,0,0.5,2,0,6
0,0.457388100214303,26,1,1,0,0.5,2,0,6
0,0.439078100025654,27,1,1,0,0.5,2,0,6
0,0.526788600021973,28,0,1,0,0.5,2,0,6
0,0.711325000040233,29,1,1,0,0.5,2,0,6
0,0.531895800027996,30,1,1,0,0.5,2,0,6
0,0.568817300023511,31,1,1,0,0.5,2,0,6
0,0.52726239990443,32,1,1,0,0.5,2,0,6
0,0.468066599918529,33,1,1,0,0.5,2,0,6
0,0.441004400141537,34,1,1,0,0.5,2,0,6
0,0.468809100100771,35,1,1,0,0.5,2,0,6
0,0.697011899901554,36,0,1,0,0.5,2,0,6
0,0.513187800068408,37,1,1,0,0.5,2,0,6
0,0.415998799959198,38,1,1,0,0.5,2,0,6
0,0.459621400106698,39,1,1,0,0.5,2,0,6
0,0.444021999835968,40,1,1,0,0.5,2,0,6
0,0.39014169992879,41,0,1,0,0.5,2,0,6
0,0.427518200129271,42,0,1,0,0.5,2,0,6
1,0.842608799925074,43,1,1,0,0.5,2,0,6
1,0.513671400025487,44,1,1,0,0.5,2,0,6
1,0.45107279997319,45,1,1,0,0.5,2,0,6
0,0.430357999866828,46,0,1,0,0.5,2,0,6
1,0.674606200074777,47,1,1,0,0.5,2,0,6
1,0.526237600017339,48,1,1,0,0.5,2,0,6
1,0.559911799849942,49,0,1,0,0.5,2,0,6
0,0.621888700174168,50,0,1,0,0.5,2,0,6
1,0.501906199846417,51,1,1,0,0.5,2,0,6
1,0.646679400000721,52,1,1,0,0.5,2,0,6
1,0.485804399941117,53,1,1,0,0.5,2,0,6
1,0.588333700085059,54,1,1,0,0.5,2,0,6
1,0.467155300080776,55,1,1,0,0.5,2,0,6
1,0.58075729990378,56,0,1,0,0.5,2,0,6
1,0.770526399835944,57,1,1,0,0.5,2,0,6
1,0.527132800081745,58,1,1,0,0.5,2,0,6
1,0.411992899840698,59,1,1,0,0.5,2,0,6
1,0.707954399986193,60,1,1,0,0.5,2,0,6
1,0.514435000019148,61,1,1,0,0.5,2,0,6
1,0.493829000042751,62,0,1,0,0.5,2,0,6
1,0.492896500043571,63,1,1,0,0.5,2,0,6
1,0.60229040007107,64,1,1,0,0.5,2,0,6
1,0.534473000094295,65,1,1,0,0.5,2,0,6
1,0.531009099911898,66,1,1,0,0.5,2,0,6
1,0.335985100129619,67,1,1,0,0.5,2,0,6
1,0.639483999926597,68,1,1,0,0.5,2,0,6
1,0.649053400149569,69,1,1,0,0.5,2,0,6
1,0.434162899851799,70,1,1,0,0.5,2,0,6
0,0.361480199964717,71,0,1,0,0.5,2,0,6
1,0.494072300149128,72,1,1,0,0.5,2,0,6
1,0.466686200117692,73,1,1,0,0.5,2,0,6
1,0.562746499897912,74,1,1,0,0.5,2,0,6
1,0.486255999887362,75,1,1,0,0.5,2,0,6
1,0.451007900061086,76,1,1,0,0.5,2,0,6
1,0.567978600040078,77,1,1,0,0.5,2,0,6
1,0.491125500062481,78,1,1,0,0.5,2,0,6
1,0.643782400060445,79,1,1,0,0.5,2,0,6
1,0.390512200072408,80,0,1,0,0.5,2,0,6
1,0.486226199893281,81,0,1,0,0.5,2,0,6
1,1.19780889991671,82,0,1,0,0.5,2,0,6
0,0.559898999985308,83,1,1,0,0.5,2,0,6
0,0.458740699803457,84,1,1,0,0.5,2,0,6
0,0.465463100001216,85,0,1,0,0.5,2,0,6
1,0.630546800093725,86,0,1,0,0.5,2,0,6
0,0.467481400119141,87,1,1,0,0.5,2,0,6
0,0.430404199985787,88,0,1,0,0.5,2,0,6
0,1.18494009994902,89,1,1,0,0.5,2,0,6
0,0.480037700152025,90,1,1,0,0.5,2,0,6
0,0.663766199955717,91,1,1,0,0.5,2,0,6
0,0.560832099989057,92,1,1,0,0.5,2,0,6
0,0.442653100006282,93,1,1,0,0.5,2,0,6
0,0.494601000100374,94,1,1,0,0.5,2,0,6
0,0.5732611999847,95,1,1,0,0.5,2,0,6
0,0.662767000030726,96,1,1,0,0.5,2,0,6
0,0.519663099898025,97,1,1,0,0.5,2,0,6
0,0.501921799965203,98,1,1,0,0.5,2,0,6
0,0.626567599829286,99,1,1,0,0.5,2,0,6
0,0.510197800118476,100,1,1,0,0.5,2,0,6
0,0.576742100063711,101,1,1,0,0.5,2,0,6
0,0.713404300156981,102,1,1,0,0.5,2,0,6
0,0.428534700069577,103,1,1,0,0.5,2,0,6
0,0.406510799890384,104,1,1,0,0.5,2,0,6
1,0.385584499919787,105,0,1,0,0.5,2,0,6
0,0.544808400096372,106,1,1,0,0.5,2,0,6
0,0.502204000018537,107,1,1,0,0.5,2,0,6
0,0.460877199890092,108,1,1,0,0.5,2,0,6
0,0.414292000001296,109,1,1,0,0.5,2,0,6
0,0.499835800146684,110,0,1,0,0.5,2,0,6
0,0.986952999839559,111,1,1,0,0.5,2,0,6
0,0.748576899990439,112,1,1,0,0.5,2,0,6
0,0.87446690001525,113,1,1,0,0.5,2,0,6
0,0.514082200126723,114,1,1,0,0.5,2,0,6
0,0.781853999942541,115,1,1,0,0.5,2,0,6
0,0.684016300132498,116,1,1,0,0.5,2,0,6
0,0.541932899970561,117,1,1,0,0.5,2,0,6
0,0.678102799924091,118,1,1,0,0.5,2,0,6
0,0.529231100110337,119,1,1,0,0.5,2,0,6
0,0.427705600159243,120,1,1,0,0.5,2,0,6
0,0.322187800193206,121,0,1,0,0.5,2,0,6
0,0.420822800137103,122,0,1,0,0.5,2,0,6
1,1.20095109986141,123,1,1,0,0.5,2,0,6
1,0.53672940004617,124,1,1,0,0.5,2,0,6
1,0.423127199988812,125,1,1,0,0.5,2,0,6
1,0.653211000142619,126,1,1,0,0.5,2,0,6
1,0.567916800035164,127,1,1,0,0.5,2,0,6
1,0.946922699920833,128,1,1,0,0.5,2,0,6
1,0.752981099998578,129,0,1,0,0.5,2,0,6
0,0.268240999896079,130,1,1,0,0.5,2,0,6
0,0.496388199971989,131,0,1,0,0.5,2,0,6
1,1.19201519992203,132,1,1,0,0.5,2,0,6
1,0.558232400100678,133,1,1,0,0.5,2,0,6
1,0.618946699891239,134,1,1,0,0.5,2,0,6
1,0.492849400034174,135,1,1,0,0.5,2,0,6
1,0.73310499987565,136,1,1,0,0.5,2,0,6
1,0.650489399908111,137,1,1,0,0.5,2,0,6
1,0.657447299920023,138,1,1,0,0.5,2,0,6
1,1.22571679996327,139,1,1,0,0.5,2,0,6
1,0.739146300125867,140,1,1,0,0.5,2,0,6
1,0.520126800052822,141,0,1,0,0.5,2,0,6
1,0.783836300019175,142,1,1,0,0.5,2,0,6
1,0.61217310000211,143,1,1,0,0.5,2,0,6
1,0.542874000035226,144,1,1,0,0.5,2,0,6
0,0.610279199900106,145,0,1,0,0.5,2,0,6
1,0.917563500115648,146,1,1,0,0.5,2,0,6
1,0.447038899874315,147,1,1,0,0.5,2,0,6
1,0.632453699829057,148,1,1,0,0.5,2,0,6
1,0.422445499803871,149,1,1,0,0.5,2,0,6
1,0.548013899940997,150,1,1,0,0.5,2,0,6
1,0.760877100052312,151,1,1,0,0.5,2,0,6
1,0.545477099949494,152,1,1,0,0.5,2,0,6
1,0.761635700007901,153,0,1,0,0.5,2,0,6
1,0.603757100179792,154,0,1,0,0.5,2,0,6
0,0.602548100054264,155,1,1,0,0.5,2,0,6
0,0.424676900031045,156,0,1,0,0.5,2,0,6
1,0.708943699952215,157,1,1,0,0.5,2,0,6
1,0.504651499912143,158,1,1,0,0.5,2,0,6
1,0.541729599935934,159,1,1,0,0.5,2,0,6
1,0.690434799995273,160,1,1,0,0.5,2,0,6
1,0.714322899933904,1,0,1,1,0.5,4,0,6
0,0.680496199987829,2,1,1,1,0.5,4,0,6
0,0.541757900035009,3,1,1,1,0.5,4,0,6
0,0.542256199987605,4,1,1,1,0.5,4,0,6
0,0.51530610001646,5,1,1,1,0.5,4,0,6
0,0.606693899957463,6,1,1,1,0.5,4,0,6
0,0.698316900059581,7,1,1,1,0.5,4,0,6
1,0.438134199939668,8,0,1,1,0.5,4,0,6
0,0.478549800114706,9,1,1,1,0.5,4,0,6
0,0.541323500219733,10,1,1,1,0.5,4,0,6
0,0.512822999851778,11,1,1,1,0.5,4,0,6
0,0.588713699951768,12,0,1,1,0.5,4,0,6
1,0.595204799901694,13,0,1,1,0.5,4,0,6
0,0.513677899958566,14,1,1,1,0.5,4,0,6
0,0.60843149991706,15,1,1,1,0.5,4,0,6
0,0.670852300012484,16,1,1,1,0.5,4,0,6
0,0.749222200131044,17,1,1,1,0.5,4,0,6
0,0.485746999969706,18,1,1,1,0.5,4,0,6
0,0.624430499970913,19,0,1,1,0.5,4,0,6
1,0.405313299968839,20,1,1,1,0.5,4,0,6
1,0.48677540011704,21,0,1,1,0.5,4,0,6
0,0.76573729980737,22,1,1,1,0.5,4,0,6
0,0.805544100003317,23,1,1,1,0.5,4,0,6
0,1.12415340007283,24,1,1,1,0.5,4,0,6
0,0.426212799968198,25,1,1,1,0.5,4,0,6
0,0.39585949992761,26,0,1,1,0.5,4,0,6
1,1.4659581000451,27,0,1,1,0.5,4,0,6
0,0.89686520001851,28,0,1,1,0.5,4,0,6
0,0.321999399922788,29,1,1,1,0.5,4,0,6
0,0.637325099902228,30,1,1,1,0.5,4,0,6
0,0.348405099939555,31,1,1,1,0.5,4,0,6
0,0.595681600039825,32,1,1,1,0.5,4,0,6
0,0.437375399982557,33,1,1,1,0.5,4,0,6
1,0.723975900094956,34,0,1,1,0.5,4,0,6
1,0.651743300026283,35,0,1,1,0.5,4,0,6
0,0.335947100073099,36,1,1,1,0.5,4,0,6
0,0.722242799820378,37,0,1,1,0.5,4,0,6
1,1.07724340003915,38,0,1,1,0.5,4,0,6
0,1.00669499998912,39,1,1,1,0.5,4,0,6
0,0.509195300051943,40,1,1,1,0.5,4,0,6
0,1.23797270003706,41,0,1,1,0.5,4,0,6
1,0.472042300039902,42,1,1,1,0.5,4,0,6
0,0.382609699852765,43,0,1,1,0.5,4,0,6
0,1.01422609994188,44,0,1,1,0.5,4,0,6
1,0.104306499939412,45,1,1,1,0.5,4,0,6
1,0.61357509996742,46,1,1,1,0.5,4,0,6
1,0.716577399987727,47,1,1,1,0.5,4,0,6
1,0.603025200078264,48,1,1,1,0.5,4,0,6
1,0.657615699805319,49,1,1,1,0.5,4,0,6
1,0.500403099926189,50,1,1,1,0.5,4,0,6
0,0.944053400075063,51,0,1,1,0.5,4,0,6
1,1.06020270008594,52,1,1,1,0.5,4,0,6
1,0.630068600177765,53,1,1,1,0.5,4,0,6
1,1.40048979991116,54,1,1,1,0.5,4,0,6
1,0.71336319996044,55,1,1,1,0.5,4,0,6
1,1.00814579986036,56,1,1,1,0.5,4,0,6
1,0.648810300044715,57,1,1,1,0.5,4,0,6
1,0.554901099996641,58,1,1,1,0.5,4,0,6
1,0.550965500064194,59,1,1,1,0.5,4,0,6
1,0.553407200146467,60,1,1,1,0.5,4,0,6
1,0.369298599893227,61,1,1,1,0.5,4,0,6
1,0.412028300110251,62,1,1,1,0.5,4,0,6
1,0.643465699860826,63,1,1,1,0.5,4,0,6
1,0.628693899838254,64,1,1,1,0.5,4,0,6
1,0.824683800106868,65,1,1,1,0.5,4,0,6
1,0.567822300130501,66,1,1,1,0.5,4,0,6
1,0.476376099977642,67,1,1,1,0.5,4,0,6
1,0.535371199948713,68,1,1,1,0.5,4,0,6
1,0.53438839991577,69,1,1,1,0.5,4,0,6
1,0.566570000024512,70,1,1,1,0.5,4,0,6
1,0.499810400186107,71,1,1,1,0.5,4,0,6
1,0.468198100104928,72,1,1,1,0.5,4,0,6
1,0.36321959993802,73,1,1,1,0.5,4,0,6
1,0.439282699953765,74,0,1,1,0.5,4,0,6
0,0.484848199877888,75,0,1,1,0.5,4,0,6
1,1.05330080003478,76,1,1,1,0.5,4,0,6
1,0.419961700215936,77,1,1,1,0.5,4,0,6
1,0.355180199956521,78,1,1,1,0.5,4,0,6
1,0.532033399911597,79,1,1,1,0.5,4,0,6
1,0.500215000007302,80,0,1,1,0.5,4,0,6
1,0.663741099881008,81,0,1,1,0.5,4,0,6
0,0.415621299995109,82,1,1,1,0.5,4,0,6
0,0.438921499997377,83,1,1,1,0.5,4,0,6
0,0.500278299907222,84,1,1,1,0.5,4,0,6
0,0.657457699999213,85,1,1,1,0.5,4,0,6
0,0.593829300021753,86,1,1,1,0.5,4,0,6
0,0.573019800009206,87,1,1,1,0.5,4,0,6
0,0.541619200026617,88,1,1,1,0.5,4,0,6
0,0.384029000066221,89,1,1,1,0.5,4,0,6
0,0.342408000025898,90,1,1,1,0.5,4,0,6
0,0.4466734000016,91,1,1,1,0.5,4,0,6
0,0.441032399889082,92,1,1,1,0.5,4,0,6
0,0.478869399987161,93,1,1,1,0.5,4,0,6
0,0.426195200067014,94,0,1,1,0.5,4,0,6
1,0.472830899991095,95,0,1,1,0.5,4,0,6
0,0.521957100136206,96,1,1,1,0.5,4,0,6
0,0.711492899805307,97,1,1,1,0.5,4,0,6
0,0.546605200041086,98,1,1,1,0.5,4,0,6
1,0.366836099885404,99,0,1,1,0.5,4,0,6
0,0.480210499837995,100,1,1,1,0.5,4,0,6
0,0.438336399849504,101,1,1,1,0.5,4,0,6
0,0.493125899927691,102,1,1,1,0.5,4,0,6
0,0.78693320020102,103,1,1,1,0.5,4,0,6
0,0.574847500072792,104,1,1,1,0.5,4,0,6
0,0.561248600017279,105,1,1,1,0.5,4,0,6
0,0.478999800048769,106,1,1,1,0.5,4,0,6
0,0.704973200103268,107,1,1,1,0.5,4,0,6
0,0.812921500066295,108,1,1,1,0.5,4,0,6
0,0.518549700034782,109,1,1,1,0.5,4,0,6
0,0.416114500025287,110,0,1,1,0.5,4,0,6
1,0.770885000005364,111,0,1,1,0.5,4,0,6
0,0.411101000150666,112,0,1,1,0.5,4,0,6
1,0.553471500054002,113,0,1,1,0.5,4,0,6
1,0.301002399995923,114,0,1,1,0.5,4,0,6
0,0.694902200018987,115,1,1,1,0.5,4,0,6
0,0.397810699883848,116,1,1,1,0.5,4,0,6
0,0.529300000052899,117,1,1,1,0.5,4,0,6
0,0.55661670002155,118,1,1,1,0.5,4,0,6
0,0.496691100066528,119,1,1,1,0.5,4,0,6
0,0.449482799973339,120,1,1,1,0.5,4,0,6
0,0.25717299990356,121,0,1,1,0.5,4,0,6
1,0.630627099890262,122,1,1,1,0.5,4,0,6
1,0.792434800183401,123,1,1,1,0.5,4,0,6
1,0.322374699870124,124,1,1,1,0.5,4,0,6
0,0.254318400053307,125,0,1,1,0.5,4,0,6
0,0.193450800143182,126,1,1,1,0.5,4,0,6
1,0.641932900063694,127,1,1,1,0.5,4,0,6
1,0.479148400016129,128,1,1,1,0.5,4,0,6
1,0.47930879984051,129,1,1,1,0.5,4,0,6
1,0.43292749999091,130,0,1,1,0.5,4,0,6
0,0.764325900003314,131,0,1,1,0.5,4,0,6
1,0.675318700028583,132,1,1,1,0.5,4,0,6
1,0.66144959977828,133,1,1,1,0.5,4,0,6
1,0.376713900128379,134,1,1,1,0.5,4,0,6
1,0.285877200076357,135,1,1,1,0.5,4,0,6
1,0.330775799928233,136,1,1,1,0.5,4,0,6
0,0.309198400005698,137,0,1,1,0.5,4,0,6
0,0.694334200117737,138,1,1,1,0.5,4,0,6
0,1.15618679998443,139,0,1,1,0.5,4,0,6
0,0.118809100007638,140,0,1,1,0.5,4,0,6
1,0.896014400059357,141,1,1,1,0.5,4,0,6
1,0.427330099977553,142,1,1,1,0.5,4,0,6
1,0.54821680020541,143,1,1,1,0.5,4,0,6
1,0.444588100071996,144,1,1,1,0.5,4,0,6
1,0.493986199842766,145,1,1,1,0.5,4,0,6
1,0.388276699930429,146,1,1,1,0.5,4,0,6
1,0.417481399839744,147,1,1,1,0.5,4,0,6
1,0.329498799983412,148,1,1,1,0.5,4,0,6
1,0.287467599846423,149,1,1,1,0.5,4,0,6
1,0.275576000101864,150,1,1,1,0.5,4,0,6
0,0.261030599940568,151,0,1,1,0.5,4,0,6
1,0.789812800008804,152,1,1,1,0.5,4,0,6
1,0.570321300067008,153,0,1,1,0.5,4,0,6
1,0.434856100007892,154,1,1,1,0.5,4,0,6
1,0.626130900112912,155,1,1,1,0.5,4,0,6
1,0.405539700062946,156,1,1,1,0.5,4,0,6
0,0.375967200146988,157,0,1,1,0.5,4,0,6
1,0.55432299990207,158,1,1,1,0.5,4,0,6
1,0.423501600045711,159,1,1,1,0.5,4,0,6
1,0.580620699794963,160,1,1,1,0.5,4,0,6
1,3.91132800001651,1,0,1,1,0.5,4,0,7
0,1.06533690006472,2,1,1,1,0.5,4,0,7
0,1.89692620001733,3,1,1,1,0.5,4,0,7
0,1.53960839984939,4,1,1,1,0.5,4,0,7
1,1.32534150010906,5,0,1,1,0.5,4,0,7
0,1.08415280003101,6,1,1,1,0.5,4,0,7
0,2.19089649990201,7,1,1,1,0.5,4,0,7
1,1.73568199994043,8,0,1,1,0.5,4,0,7
0,2.26274889986962,9,1,1,1,0.5,4,0,7
0,3.07932569994591,10,1,1,1,0.5,4,0,7
1,4.39999580010772,11,0,1,1,0.5,4,0,7
0,0.676221800036728,12,1,1,1,0.5,4,0,7
0,3.10235260007903,13,1,1,1,0.5,4,0,7
0,4.30853029992431,14,1,1,1,0.5,4,0,7
0,1.32767849997617,15,1,1,1,0.5,4,0,7
0,1.69602070003748,16,1,1,1,0.5,4,0,7
0,3.19646969996393,17,1,1,1,0.5,4,0,7
1,3.44392270012759,18,0,1,1,0.5,4,0,7
0,0.92035899986513,19,1,1,1,0.5,4,0,7
1,2.45496429991908,20,0,1,1,0.5,4,0,7
0,0.80360330012627,21,1,1,1,0.5,4,0,7
0,1.35660289996304,22,1,1,1,0.5,4,0,7
0,2.84147800016217,23,1,1,1,0.5,4,0,7
0,1.30813100002706,24,1,1,1,0.5,4,0,7
0,1.30061529995874,25,1,1,1,0.5,4,0,7
0,2.11330249998719,26,1,1,1,0.5,4,0,7
1,1.14997179992497,27,0,1,1,0.5,4,0,7
0,0.782718799775466,28,0,1,1,0.5,4,0,7
0,1.2423583001364,29,1,1,1,0.5,4,0,7
1,5.03868889994919,30,0,1,1,0.5,4,0,7
0,0.891019499860704,31,1,1,1,0.5,4,0,7
0,2.88776329997927,32,1,1,1,0.5,4,0,7
0,1.23255719989538,33,1,1,1,0.5,4,0,7
0,1.09179219999351,34,1,1,1,0.5,4,0,7
0,2.2609290999826,35,1,1,1,0.5,4,0,7
0,2.52338910009712,36,0,1,1,0.5,4,0,7
1,1.71747280005366,37,0,1,1,0.5,4,0,7
1,1.67801919998601,38,0,1,1,0.5,4,0,7
1,0.423966999864206,39,0,1,1,0.5,4,0,7
0,0.751304699806497,40,1,1,1,0.5,4,0,7
0,1.90955569990911,41,0,1,1,0.5,4,0,7
1,1.07177020004019,42,1,1,1,0.5,4,0,7
1,1.46646559983492,43,1,1,1,0.5,4,0,7
1,1.35321979993023,44,1,1,1,0.5,4,0,7
1,1.46091939997859,45,1,1,1,0.5,4,0,7
1,1.09770829998888,46,1,1,1,0.5,4,0,7
0,2.41395369987004,47,0,1,1,0.5,4,0,7
1,2.17670980002731,48,1,1,1,0.5,4,0,7
1,1.07536839996465,49,0,1,1,0.5,4,0,7
0,2.08302709995769,50,0,1,1,0.5,4,0,7
0,3.5970708001405,51,0,1,1,0.5,4,0,7
1,1.2070601999294,52,1,1,1,0.5,4,0,7
0,3.97662349999882,53,0,1,1,0.5,4,0,7
0,1.21169370017014,54,0,1,1,0.5,4,0,7
1,0.763222699984908,55,1,1,1,0.5,4,0,7
1,2.5256451999303,56,0,1,1,0.5,4,0,7
1,0.215857499977574,57,1,1,1,0.5,4,0,7
0,0.440387199865654,58,0,1,1,0.5,4,0,7
0,2.34948470001109,59,0,1,1,0.5,4,0,7
0,0.926826500101015,60,0,1,1,0.5,4,0,7
0,1.00727889989503,61,0,1,1,0.5,4,0,7
1,0.959471999900416,62,0,1,1,0.5,4,0,7
0,3.54288029996678,63,0,1,1,0.5,4,0,7
1,0.941960799973458,64,1,1,1,0.5,4,0,7
0,4.19658059999347,65,0,1,1,0.5,4,0,7
1,0.573694600025192,66,1,1,1,0.5,4,0,7
1,2.99651130009443,67,1,1,1,0.5,4,0,7
1,1.81158490013331,68,1,1,1,0.5,4,0,7
0,1.08383359992877,69,0,1,1,0.5,4,0,7
0,0.696966599905863,70,0,1,1,0.5,4,0,7
0,1.35065499995835,71,0,1,1,0.5,4,0,7
0,1.52789380005561,72,0,1,1,0.5,4,0,7
0,0.907546499976888,73,0,1,1,0.5,4,0,7
0,0.750021100044251,74,0,1,1,0.5,4,0,7
1,0.404814899899066,75,1,1,1,0.5,4,0,7
0,0.595079299993813,76,0,1,1,0.5,4,0,7
0,2.3505667001009,77,0,1,1,0.5,4,0,7
0,0.403464700095356,78,0,1,1,0.5,4,0,7
1,0.979708900209516,79,1,1,1,0.5,4,0,7
0,1.98879149998538,80,1,1,1,0.5,4,0,7
0,1.09861969994381,81,1,1,1,0.5,4,0,7
0,1.11315350001678,82,1,1,1,0.5,4,0,7
0,1.61926409997977,83,1,1,1,0.5,4,0,7
0,1.36872750008479,84,1,1,1,0.5,4,0,7
0,3.07443860010244,85,0,1,1,0.5,4,0,7
0,1.83147769980133,86,1,1,1,0.5,4,0,7
1,0.708184199873358,87,0,1,1,0.5,4,0,7
0,0.525766199920327,88,0,1,1,0.5,4,0,7
1,1.49006070010364,89,0,1,1,0.5,4,0,7
0,0.614963699830696,90,1,1,1,0.5,4,0,7
0,1.98249239986762,91,1,1,1,0.5,4,0,7
1,3.1975405998528,92,0,1,1,0.5,4,0,7
1,2.17174499994144,93,0,1,1,0.5,4,0,7
0,0.446021800162271,94,1,1,1,0.5,4,0,7
0,1.00565059995279,95,1,1,1,0.5,4,0,7
0,4.47270939988084,96,1,1,1,0.5,4,0,7
0,0.718947499990463,97,1,1,1,0.5,4,0,7
1,0.548683700151742,98,0,1,1,0.5,4,0,7
0,0.466018200153485,99,1,1,1,0.5,4,0,7
0,0.765035700052977,100,1,1,1,0.5,4,0,7
0,1.81096199993044,101,1,1,1,0.5,4,0,7
0,0.790579200023785,102,1,1,1,0.5,4,0,7
1,0.845853500068188,103,0,1,1,0.5,4,0,7
0,0.918741500005126,104,1,1,1,0.5,4,0,7
0,0.66067639994435,105,1,1,1,0.5,4,0,7
1,0.543090699939057,106,0,1,1,0.5,4,0,7
1,1.070335800061,107,0,1,1,0.5,4,0,7
0,0.663899899926037,108,1,1,1,0.5,4,0,7
1,0.689376400085166,109,0,1,1,0.5,4,0,7
0,1.09623649995774,110,0,1,1,0.5,4,0,7
1,0.6498080000747,111,0,1,1,0.5,4,0,7
0,0.237276799976826,112,1,1,1,0.5,4,0,7
1,0.641029999824241,113,0,1,1,0.5,4,0,7
0,0.825448799878359,114,1,1,1,0.5,4,0,7
0,1.19682929990813,115,1,1,1,0.5,4,0,7
0,0.882461100118235,116,1,1,1,0.5,4,0,7
0,2.17270589992404,117,1,1,1,0.5,4,0,7
1,2.77078430005349,118,0,1,1,0.5,4,0,7
1,1.19456239999272,119,0,1,1,0.5,4,0,7
1,0.518394599901512,120,0,1,1,0.5,4,0,7
1,0.726130299968645,121,1,1,1,0.5,4,0,7
0,0.973030300112441,122,0,1,1,0.5,4,0,7
0,1.23608069983311,123,0,1,1,0.5,4,0,7
1,1.18877479992807,124,1,1,1,0.5,4,0,7
1,3.23119149985723,125,1,1,1,0.5,4,0,7
1,2.59117079991847,126,1,1,1,0.5,4,0,7
1,1.33385789999738,127,1,1,1,0.5,4,0,7
1,1.9386685998179,128,1,1,1,0.5,4,0,7
0,0.952582400059327,129,1,1,1,0.5,4,0,7
1,2.3818211001344,130,0,1,1,0.5,4,0,7
0,2.3996323000174,131,0,1,1,0.5,4,0,7
1,0.936865499941632,132,1,1,1,0.5,4,0,7
0,0.96669810009189,133,0,1,1,0.5,4,0,7
1,1.23749819980003,134,1,1,1,0.5,4,0,7
1,4.77755049988627,135,1,1,1,0.5,4,0,7
0,0.97310179984197,136,0,1,1,0.5,4,0,7
1,2.80418670014478,137,1,1,1,0.5,4,0,7
0,1.75999610009603,138,0,1,1,0.5,4,0,7
1,0.974336900049821,139,1,1,1,0.5,4,0,7
0,0.991724000079557,140,0,1,1,0.5,4,0,7
1,0.460164200048894,141,0,1,1,0.5,4,0,7
1,2.23665799992159,142,1,1,1,0.5,4,0,7
1,2.69669719994999,143,1,1,1,0.5,4,0,7
1,0.899021100020036,144,1,1,1,0.5,4,0,7
1,2.06238860008307,145,1,1,1,0.5,4,0,7
1,5.0481917001307,146,1,1,1,0.5,4,0,7
0,1.26180290011689,147,0,1,1,0.5,4,0,7
1,1.38810870004818,148,1,1,1,0.5,4,0,7
1,3.45427250000648,149,1,1,1,0.5,4,0,7
0,2.98274899995886,150,0,1,1,0.5,4,0,7
1,0.549399900017306,151,1,1,1,0.5,4,0,7
0,2.97633030009456,152,0,1,1,0.5,4,0,7
0,1.16597920004278,153,1,1,1,0.5,4,0,7
1,3.90722549986094,154,0,1,1,0.5,4,0,7
0,1.04189214661949,155,1,1,1,0.5,4,0,7
0,0.57059370004572,156,0,1,1,0.5,4,0,7
0,4.5665993001312,157,0,1,1,0.5,4,0,7
1,0.455759999807924,158,1,1,1,0.5,4,0,7
1,1.99133019987494,159,1,1,1,0.5,4,0,7
0,2.83757310011424,160,0,1,1,0.5,4,0,7
1,1.43250619992614,1,0,1,0,0.5,2,0,7
1,2.3858312999364,2,0,1,0,0.5,2,0,7
1,0.707810200052336,3,0,1,0,0.5,2,0,7
0,1.25072440016083,4,1,1,0,0.5,2,0,7
0,1.45533090014942,5,1,1,0,0.5,2,0,7
0,1.54337319987826,6,1,1,0,0.5,2,0,7
0,1.27409399999306,7,1,1,0,0.5,2,0,7
1,1.58049469999969,8,0,1,0,0.5,2,0,7
1,0.523628100054339,9,0,1,0,0.5,2,0,7
1,1.52669379999861,10,0,1,0,0.5,2,0,7
0,1.80395999993198,11,1,1,0,0.5,2,0,7
0,0.583854400087148,12,0,1,0,0.5,2,0,7
1,1.01609149994329,13,0,1,0,0.5,2,0,7
0,0.703770900145173,14,1,1,0,0.5,2,0,7
1,1.72079669986852,15,0,1,0,0.5,2,0,7
0,0.642485500080511,16,1,1,0,0.5,2,0,7
0,2.19042959995568,17,1,1,0,0.5,2,0,7
0,1.9448042998556,18,1,1,0,0.5,2,0,7
1,1.77777220006101,19,1,1,0,0.5,2,0,7
1,1.04584220005199,20,1,1,0,0.5,2,0,7
1,1.42762609990314,21,0,1,0,0.5,2,0,7
0,0.811164899962023,22,1,1,0,0.5,2,0,7
0,0.94106199988164,23,1,1,0,0.5,2,0,7
1,1.81854379992001,24,0,1,0,0.5,2,0,7
0,1.93064000015147,25,1,1,0,0.5,2,0,7
1,3.48486409988254,26,1,1,0,0.5,2,0,7
1,2.2456229000818,27,0,1,0,0.5,2,0,7
0,1.01158690010197,28,0,1,0,0.5,2,0,7
0,2.21709019993432,29,1,1,0,0.5,2,0,7
1,2.84931239997968,30,0,1,0,0.5,2,0,7
1,2.03711570007727,31,0,1,0,0.5,2,0,7
0,2.79372889990918,32,1,1,0,0.5,2,0,7
1,2.78537550009787,33,0,1,0,0.5,2,0,7
1,2.45216630003415,34,0,1,0,0.5,2,0,7
0,2.43310420005582,35,1,1,0,0.5,2,0,7
1,3.8588700001128,36,0,1,0,0.5,2,0,7
0,1.35559820011258,37,0,1,0,0.5,2,0,7
0,1.5653274001088,38,1,1,0,0.5,2,0,7
0,1.93511059996672,39,1,1,0,0.5,2,0,7
0,3.89924019994214,40,1,1,0,0.5,2,0,7
0,4.71570189995691,41,0,1,0,0.5,2,0,7
1,0.613938700174913,42,1,1,0,0.5,2,0,7
1,1.63104959996417,43,1,1,0,0.5,2,0,7
1,1.10769989993423,44,1,1,0,0.5,2,0,7
1,1.75551229994744,45,1,1,0,0.5,2,0,7
1,1.47895830008201,46,1,1,0,0.5,2,0,7
1,2.04085749993101,47,1,1,0,0.5,2,0,7
1,5.37840709998272,48,1,1,0,0.5,2,0,7
1,2.42054739990272,49,1,1,0,0.5,2,0,7
1,1.42579900007695,50,1,1,0,0.5,2,0,7
1,1.16407989989966,51,1,1,0,0.5,2,0,7
1,1.01231679995544,52,1,1,0,0.5,2,0,7
1,1.18654979998246,53,1,1,0,0.5,2,0,7
1,1.48824459989555,54,1,1,0,0.5,2,0,7
1,1.36889789998531,55,1,1,0,0.5,2,0,7
1,1.08010439993814,56,1,1,0,0.5,2,0,7
1,0.644836399937049,57,1,1,0,0.5,2,0,7
1,1.04974149982445,58,1,1,0,0.5,2,0,7
1,0.900894399965182,59,1,1,0,0.5,2,0,7
1,0.718561300076544,60,1,1,0,0.5,2,0,7
1,0.78406500001438,61,1,1,0,0.5,2,0,7
1,0.578366900095716,62,1,1,0,0.5,2,0,7
1,3.65301509993151,63,1,1,0,0.5,2,0,7
1,1.37903070007451,64,1,1,0,0.5,2,0,7
1,0.738972899969667,65,1,1,0,0.5,2,0,7
1,0.542111499933526,66,1,1,0,0.5,2,0,7
1,0.69892799993977,67,1,1,0,0.5,2,0,7
1,0.649177499813959,68,1,1,0,0.5,2,0,7
1,0.729163799900562,69,1,1,0,0.5,2,0,7
1,0.513493600068614,70,1,1,0,0.5,2,0,7
1,0.636004999978468,71,1,1,0,0.5,2,0,7
1,0.607015799963847,72,1,1,0,0.5,2,0,7
1,0.657004600157961,73,1,1,0,0.5,2,0,7
1,0.529687399975956,74,0,1,0,0.5,2,0,7
0,1.81411849986762,75,0,1,0,0.5,2,0,7
0,2.41347640007734,76,0,1,0,0.5,2,0,7
1,0.49788870010525,77,1,1,0,0.5,2,0,7
1,1.50519430008717,78,1,1,0,0.5,2,0,7
1,1.46602889988571,79,1,1,0,0.5,2,0,7
1,3.96623370004818,80,0,1,0,0.5,2,0,7
0,1.01940009999089,81,1,1,0,0.5,2,0,7
0,2.46510040014982,82,1,1,0,0.5,2,0,7
0,2.18998049991205,83,1,1,0,0.5,2,0,7
0,1.36235940014012,84,1,1,0,0.5,2,0,7
0,2.03224990004674,85,1,1,0,0.5,2,0,7
0,2.13415540009737,86,1,1,0,0.5,2,0,7
0,1.30504140001722,87,1,1,0,0.5,2,0,7
0,2.45134310005233,88,1,1,0,0.5,2,0,7
0,1.04712629993446,89,1,1,0,0.5,2,0,7
0,1.95943469996564,90,1,1,0,0.5,2,0,7
1,1.41317700012587,91,0,1,0,0.5,2,0,7
0,1.26949839992449,92,1,1,0,0.5,2,0,7
0,0.750247099902481,93,1,1,0,0.5,2,0,7
0,1.20297869993374,94,0,1,0,0.5,2,0,7
1,1.06955050001852,95,0,1,0,0.5,2,0,7
1,1.45085339993238,96,0,1,0,0.5,2,0,7
0,0.812026199884713,97,1,1,0,0.5,2,0,7
0,1.06126190000214,98,1,1,0,0.5,2,0,7
0,1.04730279999785,99,1,1,0,0.5,2,0,7
0,1.01791900000535,100,1,1,0,0.5,2,0,7
0,0.933964299969375,101,1,1,0,0.5,2,0,7
0,0.678293900098652,102,1,1,0,0.5,2,0,7
0,1.95543459989131,103,1,1,0,0.5,2,0,7
0,0.566184299997985,104,1,1,0,0.5,2,0,7
0,0.671311300015077,105,1,1,0,0.5,2,0,7
0,0.668053700122982,106,1,1,0,0.5,2,0,7
0,0.580478300107643,107,1,1,0,0.5,2,0,7
0,0.843835700070486,108,1,1,0,0.5,2,0,7
0,0.650608600117266,109,1,1,0,0.5,2,0,7
0,0.64017860009335,110,0,1,0,0.5,2,0,7
1,1.07762659993023,111,0,1,0,0.5,2,0,7
1,1.48159700003453,112,1,1,0,0.5,2,0,7
1,0.796952999895439,113,0,1,0,0.5,2,0,7
1,1.13996460009366,114,0,1,0,0.5,2,0,7
0,1.23082419997081,115,1,1,0,0.5,2,0,7
0,0.849566100165248,116,1,1,0,0.5,2,0,7
0,0.704300000099465,117,1,1,0,0.5,2,0,7
0,0.758585100062192,118,1,1,0,0.5,2,0,7
0,0.527025100076571,119,1,1,0,0.5,2,0,7
0,0.808817900018767,120,1,1,0,0.5,2,0,7
0,0.0640818001702428,121,0,1,0,0.5,2,0,7
0,1.42088339990005,122,0,1,0,0.5,2,0,7
0,0.676198399858549,123,0,1,0,0.5,2,0,7
1,1.62484449986368,124,1,1,0,0.5,2,0,7
1,0.806980400113389,125,1,1,0,0.5,2,0,7
1,0.724928600015119,126,0,1,0,0.5,2,0,7
1,0.676356900017709,127,1,1,0,0.5,2,0,7
0,2.18848409992643,128,0,1,0,0.5,2,0,7
1,0.565480599878356,129,1,1,0,0.5,2,0,7
1,3.55856249993667,130,0,1,0,0.5,2,0,7
0,1.60813950002193,131,0,1,0,0.5,2,0,7
0,1.232927700039,132,0,1,0,0.5,2,0,7
0,0.843399999896064,133,0,1,0,0.5,2,0,7
0,1.20181780005805,134,0,1,0,0.5,2,0,7
1,1.08627129998058,135,1,1,0,0.5,2,0,7
1,1.41794560011476,136,1,1,0,0.5,2,0,7
0,3.43351790006273,137,0,1,0,0.5,2,0,7
1,0.547160000074655,138,0,1,0,0.5,2,0,7
0,5.07715240004472,139,0,1,0,0.5,2,0,7
1,4.62237610016018,140,1,1,0,0.5,2,0,7
1,2.34991280012764,141,1,1,0,0.5,2,0,7
1,1.10519740008749,142,1,1,0,0.5,2,0,7
1,1.85921159991995,143,1,1,0,0.5,2,0,7
1,1.84876159997657,144,1,1,0,0.5,2,0,7
1,3.47006560000591,145,1,1,0,0.5,2,0,7
1,3.85827929992229,146,1,1,0,0.5,2,0,7
1,1.70833569997922,147,1,1,0,0.5,2,0,7
1,0.98212520009838,148,1,1,0,0.5,2,0,7
1,2.10096700000577,149,1,1,0,0.5,2,0,7
1,1.00663259997964,150,1,1,0,0.5,2,0,7
1,0.805700400145724,151,1,1,0,0.5,2,0,7
1,0.615931200096384,152,1,1,0,0.5,2,0,7
1,0.867827200097963,153,0,1,0,0.5,2,0,7
1,1.24118760018609,154,1,1,0,0.5,2,0,7
1,1.57386150001548,155,1,1,0,0.5,2,0,7
1,1.35298099997453,156,1,1,0,0.5,2,0,7
1,0.719265600200743,157,1,1,0,0.5,2,0,7
1,0.921437199926004,158,1,1,0,0.5,2,0,7
1,1.14218589989468,159,1,1,0,0.5,2,0,7
1,0.858987299958244,160,1,1,0,0.5,2,0,7
0,2.8152733000461,1,1,1,0,0.5,2,0,8
0,2.01547420001589,2,1,1,0,0.5,2,0,8
0,1.97310279984958,3,1,1,0,0.5,2,0,8
0,1.44002779992297,4,1,1,0,0.5,2,0,8
0,3.04153229994699,5,1,1,0,0.5,2,0,8
0,1.19803299987689,6,1,1,0,0.5,2,0,8
0,2.63735780003481,7,1,1,0,0.5,2,0,8
0,1.214386299951,8,1,1,0,0.5,2,0,8
0,1.26835851546687,9,1,1,0,0.5,2,0,8
0,2.6314631998539,10,1,1,0,0.5,2,0,8
0,1.61646790010855,11,1,1,0,0.5,2,0,8
0,1.14496339997277,12,1,1,0,0.5,2,0,8
1,2.71868519997224,13,0,1,0,0.5,2,0,8
0,0.793629900086671,14,1,1,0,0.5,2,0,8
0,2.72394639998674,15,1,1,0,0.5,2,0,8
1,3.9759122999385,16,0,1,0,0.5,2,0,8
1,0.861385599942878,17,0,1,0,0.5,2,0,8
0,0.675710299983621,18,1,1,0,0.5,2,0,8
0,1.14209280000068,19,1,1,0,0.5,2,0,8
0,1.08889900008217,20,1,1,0,0.5,2,0,8
1,3.67910860013217,21,0,1,0,0.5,2,0,8
1,0.7826716999989,22,0,1,0,0.5,2,0,8
0,0.701939299935475,23,1,1,0,0.5,2,0,8
1,1.01326699997298,24,0,1,0,0.5,2,0,8
0,0.648596999933943,25,1,1,0,0.5,2,0,8
0,0.878025599988177,26,1,1,0,0.5,2,0,8
0,2.15818709996529,27,1,1,0,0.5,2,0,8
0,1.92249249992892,28,0,1,0,0.5,2,0,8
1,0.729155400069431,29,0,1,0,0.5,2,0,8
1,0.653223600005731,30,0,1,0,0.5,2,0,8
0,0.628855000017211,31,1,1,0,0.5,2,0,8
1,5.29235860006884,32,0,1,0,0.5,2,0,8
0,0.717220300110057,33,1,1,0,0.5,2,0,8
1,1.26250940002501,34,0,1,0,0.5,2,0,8
1,0.830672799842432,35,0,1,0,0.5,2,0,8
1,0.580775799928233,36,1,1,0,0.5,2,0,8
1,0.61504440009594,37,0,1,0,0.5,2,0,8
0,0.824612099910155,38,1,1,0,0.5,2,0,8
1,0.752658599987626,39,0,1,0,0.5,2,0,8
1,0.6837628998328,40,0,1,0,0.5,2,0,8
1,1.01282419986092,41,1,1,0,0.5,2,0,8
0,1.38922188611615,42,0,1,0,0.5,2,0,8
0,0.874663800001144,43,0,1,0,0.5,2,0,8
1,0.647271500201896,44,1,1,0,0.5,2,0,8
1,0.607441500062123,45,1,1,0,0.5,2,0,8
1,4.32424010010436,46,1,1,0,0.5,2,0,8
0,2.32347769988701,47,0,1,0,0.5,2,0,8
1,1.62218389986083,48,1,1,0,0.5,2,0,8
1,1.94117540004663,49,0,1,0,0.5,2,0,8
0,0.947088100016117,50,0,1,0,0.5,2,0,8
1,0.606521299807355,51,1,1,0,0.5,2,0,8
0,0.690733700059354,52,0,1,0,0.5,2,0,8
1,0.72203109995462,53,1,1,0,0.5,2,0,8
1,7.29685529996641,54,1,1,0,0.5,2,0,8
1,6.44290110003203,55,1,1,0,0.5,2,0,8
0,6.57992789987475,56,1,1,0,0.5,2,0,8
0,1.93957510008477,57,0,1,0,0.5,2,0,8
1,0.99328300007619,58,1,1,0,0.5,2,0,8
1,1.29173599998467,59,1,1,0,0.5,2,0,8
1,1.76387230004184,60,1,1,0,0.5,2,0,8
1,2.06334339990281,61,1,1,0,0.5,2,0,8
1,5.3482260000892,62,0,1,0,0.5,2,0,8
0,0.635647699935362,63,0,1,0,0.5,2,0,8
0,0.528863999992609,64,0,1,0,0.5,2,0,8
0,0.580101000145078,65,0,1,0,0.5,2,0,8
1,0.631371200084686,66,1,1,0,0.5,2,0,8
1,1.3931521999184,67,1,1,0,0.5,2,0,8
0,1.90349840000272,68,0,1,0,0.5,2,0,8
1,0.758502800017595,69,1,1,0,0.5,2,0,8
1,1.39935790002346,70,1,1,0,0.5,2,0,8
0,5.43592610000633,71,0,1,0,0.5,2,0,8
0,1.00773489987478,72,0,1,0,0.5,2,0,8
1,1.14210219983943,73,1,1,0,0.5,2,0,8
1,3.10180929978378,74,1,1,0,0.5,2,0,8
0,4.37713230005465,75,0,1,0,0.5,2,0,8
1,1.02397689991631,76,1,1,0,0.5,2,0,8
1,3.22638379991986,77,1,1,0,0.5,2,0,8
1,3.64883240009658,78,1,1,0,0.5,2,0,8
1,2.07154450006783,79,1,1,0,0.5,2,0,8
1,5.86546779982746,80,0,1,0,0.5,2,0,8
0,0.973881300073117,81,1,1,0,0.5,2,0,8
0,1.54038419993594,82,1,1,0,0.5,2,0,8
0,2.21400539996102,83,1,1,0,0.5,2,0,8
0,3.1722424000036,84,1,1,0,0.5,2,0,8
1,2.35730320005678,85,1,1,0,0.5,2,0,8
1,4.77374939993024,86,0,1,0,0.5,2,0,8
0,1.25905609992333,87,1,1,0,0.5,2,0,8
0,2.65511959977448,88,0,1,0,0.5,2,0,8
0,0.802911599865183,89,1,1,0,0.5,2,0,8
0,2.33254209998995,90,1,1,0,0.5,2,0,8
0,3.70064889988862,91,1,1,0,0.5,2,0,8
1,6.33970949985087,92,0,1,0,0.5,2,0,8
1,0.906578099820763,93,0,1,0,0.5,2,0,8
0,0.742618400137872,94,1,1,0,0.5,2,0,8
0,1.76739230006933,95,1,1,0,0.5,2,0,8
1,4.36629189993255,96,0,1,0,0.5,2,0,8
1,0.690984199987724,97,0,1,0,0.5,2,0,8
0,0.753757999977097,98,1,1,0,0.5,2,0,8
0,1.05099220015109,99,1,1,0,0.5,2,0,8
0,3.08106480003335,100,1,1,0,0.5,2,0,8
1,5.42058799997903,101,0,1,0,0.5,2,0,8
1,0.65630599996075,102,0,1,0,0.5,2,0,8
0,0.573967100121081,103,1,1,0,0.5,2,0,8
0,1.28847700008191,104,1,1,0,0.5,2,0,8
1,3.61403830000199,105,0,1,0,0.5,2,0,8
0,0.867312300018966,106,1,1,0,0.5,2,0,8
0,1.56512759998441,107,1,1,0,0.5,2,0,8
1,4.01948269992135,108,0,1,0,0.5,2,0,8
0,0.577433400088921,109,1,1,0,0.5,2,0,8
0,2.53118910011835,110,0,1,0,0.5,2,0,8
0,0.585460199974477,111,1,1,0,0.5,2,0,8
0,0.730282899923623,112,1,1,0,0.5,2,0,8
0,1.47070270008408,113,1,1,0,0.5,2,0,8
1,3.35178089980036,114,0,1,0,0.5,2,0,8
1,0.639689799863845,115,0,1,0,0.5,2,0,8
1,0.594152600038797,116,0,1,0,0.5,2,0,8
0,0.518187500070781,117,1,1,0,0.5,2,0,8
1,4.86561480001546,118,0,1,0,0.5,2,0,8
1,0.572805699892342,119,0,1,0,0.5,2,0,8
1,0.524228599853814,120,0,1,0,0.5,2,0,8
1,0.593377100070939,121,1,1,0,0.5,2,0,8
1,0.798982900101692,122,1,1,0,0.5,2,0,8
0,4.61153720016591,123,0,1,0,0.5,2,0,8
1,0.540347500005737,124,1,1,0,0.5,2,0,8
1,2.62872700020671,125,1,1,0,0.5,2,0,8
1,4.43198430002667,126,1,1,0,0.5,2,0,8
1,2.98366979998536,127,1,1,0,0.5,2,0,8
1,2.40682659996673,128,1,1,0,0.5,2,0,8
1,1.0932124000974,129,0,1,0,0.5,2,0,8
0,0.715063400100917,130,1,1,0,0.5,2,0,8
1,1.30567459994927,131,1,1,0,0.5,2,0,8
1,0.826692400034517,132,1,1,0,0.5,2,0,8
0,0.779335799859837,133,0,1,0,0.5,2,0,8
1,0.629470000043511,134,1,1,0,0.5,2,0,8
0,1.76639820006676,135,0,1,0,0.5,2,0,8
1,0.5719421999529,136,1,1,0,0.5,2,0,8
1,0.808077000081539,137,1,1,0,0.5,2,0,8
1,2.89561260002665,138,1,1,0,0.5,2,0,8
1,2.14727149996907,139,1,1,0,0.5,2,0,8
0,2.62640549987555,140,0,1,0,0.5,2,0,8
1,0.77744479989633,141,0,1,0,0.5,2,0,8
0,0.493832499952987,142,0,1,0,0.5,2,0,8
1,0.596297899959609,143,1,1,0,0.5,2,0,8
1,0.62715440010652,144,1,1,0,0.5,2,0,8
0,2.25119870016351,145,0,1,0,0.5,2,0,8
1,0.481013899901882,146,1,1,0,0.5,2,0,8
1,2.00882810004987,147,1,1,0,0.5,2,0,8
1,3.29636390018277,148,1,1,0,0.5,2,0,8
0,3.21525210002437,149,0,1,0,0.5,2,0,8
1,0.544122199993581,150,1,1,0,0.5,2,0,8
1,1.27462349995039,151,1,1,0,0.5,2,0,8
0,4.889409000054,152,0,1,0,0.5,2,0,8
0,0.558213499840349,153,1,1,0,0.5,2,0,8
0,1.65789529983886,154,1,1,0,0.5,2,0,8
0,1.82678340002894,155,1,1,0,0.5,2,0,8
0,4.05319619993679,156,0,1,0,0.5,2,0,8
0,0.621692899847403,157,0,1,0,0.5,2,0,8
1,0.58054340002127,158,1,1,0,0.5,2,0,8
0,1.36686579999514,159,0,1,0,0.5,2,0,8
1,0.626354100182653,160,1,1,0,0.5,2,0,8
1,1.43023638949655,1,0,1,1,0.5,4,0,8
0,1.05656420020387,2,1,1,1,0.5,4,0,8
0,2.4137073000893,3,1,1,1,0.5,4,0,8
1,1.14606969989836,4,0,1,1,0.5,4,0,8
1,0.98268869984895,5,0,1,1,0.5,4,0,8
1,0.90411420003511,6,0,1,1,0.5,4,0,8
1,0.816800500033423,7,0,1,1,0.5,4,0,8
1,1.38384560006671,8,0,1,1,0.5,4,0,8
1,0.642512600170448,9,0,1,1,0.5,4,0,8
0,0.69028630014509,10,1,1,1,0.5,4,0,8
0,1.17790300003253,11,1,1,1,0.5,4,0,8
0,5.53437110013329,12,0,1,1,0.5,4,0,8
1,1.53097540000454,13,0,1,1,0.5,4,0,8
0,0.707885699812323,14,1,1,1,0.5,4,0,8
1,2.26365670002997,15,0,1,1,0.5,4,0,8
0,0.927220500074327,16,1,1,1,0.5,4,0,8
1,1.53713149996474,17,0,1,1,0.5,4,0,8
1,0.829762500012294,18,0,1,1,0.5,4,0,8
1,0.702629399951547,19,1,1,1,0.5,4,0,8
0,1.24322700011544,20,0,1,1,0.5,4,0,8
1,1.37964890012518,21,0,1,1,0.5,4,0,8
0,0.656547199934721,22,1,1,1,0.5,4,0,8
0,1.2317057610498,23,1,1,1,0.5,4,0,8
1,4.70377890020609,24,0,1,1,0.5,4,0,8
1,1.06115650013089,25,0,1,1,0.5,4,0,8
1,0.940133700147271,26,1,1,1,0.5,4,0,8
0,5.01391760003753,27,1,1,1,0.5,4,0,8
0,3.67205379996449,28,0,1,1,0.5,4,0,8
0,1.0193570998963,29,1,1,1,0.5,4,0,8
0,5.09174320008606,30,1,1,1,0.5,4,0,8
0,3.49093280010857,31,1,1,1,0.5,4,0,8
1,4.63026169990189,32,0,1,1,0.5,4,0,8
1,1.29156309994869,33,0,1,1,0.5,4,0,8
1,0.985360800055787,34,0,1,1,0.5,4,0,8
0,0.920218999963254,35,1,1,1,0.5,4,0,8
0,6.80828950018622,36,1,1,1,0.5,4,0,8
0,2.66128779994324,37,0,1,1,0.5,4,0,8
0,7.26824570004828,38,1,1,1,0.5,4,0,8
0,2.13452750002034,39,1,1,1,0.5,4,0,8
1,5.62536469986662,40,0,1,1,0.5,4,0,8
1,1.00266409991309,41,1,1,1,0.5,4,0,8
0,1.60469539999031,42,0,1,1,0.5,4,0,8
1,1.22903919988312,43,1,1,1,0.5,4,0,8
1,1.41476340009831,44,1,1,1,0.5,4,0,8
1,3.90332860010676,45,1,1,1,0.5,4,0,8
0,2.52721730014309,46,0,1,1,0.5,4,0,8
1,0.816993300104514,47,1,1,1,0.5,4,0,8
0,3.31359559996054,48,0,1,1,0.5,4,0,8
1,0.917033399920911,49,1,1,1,0.5,4,0,8
0,2.42946980008855,50,0,1,1,0.5,4,0,8
0,0.826008299831301,51,0,1,1,0.5,4,0,8
0,0.666111399885267,52,0,1,1,0.5,4,0,8
0,0.655766799813137,53,0,1,1,0.5,4,0,8
1,0.626889500068501,54,1,1,1,0.5,4,0,8
1,1.18426859115457,55,1,1,1,0.5,4,0,8
0,1.35256913169908,56,0,1,1,0.5,4,0,8
0,0.782700200099498,57,0,1,1,0.5,4,0,8
1,0.740478799911216,58,1,1,1,0.5,4,0,8
0,2.57589820004068,59,0,1,1,0.5,4,0,8
1,0.727804299909622,60,1,1,1,0.5,4,0,8
1,2.87105940002948,61,1,1,1,0.5,4,0,8
1,4.98944050003775,62,1,1,1,0.5,4,0,8
0,2.32088640006259,63,0,1,1,0.5,4,0,8
1,0.987546199932694,64,1,1,1,0.5,4,0,8
0,2.39324140013196,65,0,1,1,0.5,4,0,8
0,0.691522900015116,66,0,1,1,0.5,4,0,8
1,0.598305399995297,67,1,1,1,0.5,4,0,8
1,3.41447869990952,68,1,1,1,0.5,4,0,8
0,2.50802039983682,69,0,1,1,0.5,4,0,8
0,0.742688599973917,70,0,1,1,0.5,4,0,8
1,0.619689299957827,71,1,1,1,0.5,4,0,8
1,0.754177700029686,72,1,1,1,0.5,4,0,8
0,2.04782089986838,73,0,1,1,0.5,4,0,8
0,0.62628830014728,74,1,1,1,0.5,4,0,8
0,2.88632569997571,75,0,1,1,0.5,4,0,8
0,0.633092100033537,76,0,1,1,0.5,4,0,8
1,0.539433399913833,77,1,1,1,0.5,4,0,8
1,4.71769910003059,78,1,1,1,0.5,4,0,8
1,3.16210830002092,79,1,1,1,0.5,4,0,8
1,1.48692749999464,80,0,1,1,0.5,4,0,8
0,0.865532200084999,81,1,1,1,0.5,4,0,8
0,2.45024889986962,82,1,1,1,0.5,4,0,8
1,1.10456299991347,83,0,1,1,0.5,4,0,8
1,2.71256010001525,84,0,1,1,0.5,4,0,8
1,0.492265899898484,85,0,1,1,0.5,4,0,8
0,0.609477199846879,86,1,1,1,0.5,4,0,8
1,0.784414799883962,87,0,1,1,0.5,4,0,8
1,0.638797200052068,88,0,1,1,0.5,4,0,8
1,0.674478300148621,89,0,1,1,0.5,4,0,8
1,0.548988299909979,90,0,1,1,0.5,4,0,8
1,0.728055099956691,91,0,1,1,0.5,4,0,8
1,0.667071799980477,92,0,1,1,0.5,4,0,8
0,2.03574820002541,93,1,1,1,0.5,4,0,8
1,4.40749659994617,94,1,1,1,0.5,4,0,8
1,2.42917189979926,95,0,1,1,0.5,4,0,8
0,0.749770800117403,96,1,1,1,0.5,4,0,8
0,2.29643270000815,97,1,1,1,0.5,4,0,8
1,1.36559899989516,98,0,1,1,0.5,4,0,8
1,0.873022499959916,99,0,1,1,0.5,4,0,8
1,0.659515499835834,100,0,1,1,0.5,4,0,8
0,0.553857699967921,101,1,1,1,0.5,4,0,8
1,1.07809350010939,102,0,1,1,0.5,4,0,8
0,0.675053199985996,103,1,1,1,0.5,4,0,8
1,2.55164729990065,104,0,1,1,0.5,4,0,8
1,0.788304200163111,105,0,1,1,0.5,4,0,8
1,0.556017900118604,106,0,1,1,0.5,4,0,8
0,0.665764299919829,107,1,1,1,0.5,4,0,8
0,1.43039199989289,108,1,1,1,0.5,4,0,8
1,3.25303809996694,109,0,1,1,0.5,4,0,8
1,0.811457299860194,110,1,1,1,0.5,4,0,8
1,1.72792560001835,111,0,1,1,0.5,4,0,8
0,0.653238200116903,112,0,1,1,0.5,4,0,8
0,0.877508600009605,113,1,1,1,0.5,4,0,8
0,5.94272849988192,114,1,1,1,0.5,4,0,8
0,1.50544300000183,115,1,1,1,0.5,4,0,8
0,6.29634990007617,116,1,1,1,0.5,4,0,8
0,5.30617100000382,117,1,1,1,0.5,4,0,8
0,1.11631599999964,118,1,1,1,0.5,4,0,8
1,4.0572847998701,119,0,1,1,0.5,4,0,8
1,0.628586699953303,120,0,1,1,0.5,4,0,8
1,0.584894899977371,121,1,1,1,0.5,4,0,8
1,0.758697699988261,122,1,1,1,0.5,4,0,8
0,1.73669830011204,123,0,1,1,0.5,4,0,8
0,0.830226199934259,124,0,1,1,0.5,4,0,8
1,0.538214700063691,125,1,1,1,0.5,4,0,8
0,5.08757380000316,126,1,1,1,0.5,4,0,8
1,1.75497070001438,127,1,1,1,0.5,4,0,8
1,3.83879479998723,128,1,1,1,0.5,4,0,8
0,1.01868400000967,129,0,1,1,0.5,4,0,8
1,0.770588399842382,130,0,1,1,0.5,4,0,8
1,0.640027299989015,131,1,1,1,0.5,4,0,8
0,2.15363770001568,132,0,1,1,0.5,4,0,8
0,0.736083600204438,133,0,1,1,0.5,4,0,8
0,0.68944610003382,134,0,1,1,0.5,4,0,8
0,0.504472200060263,135,0,1,1,0.5,4,0,8
0,1.14304640004411,136,0,1,1,0.5,4,0,8
1,0.565094100078568,137,1,1,1,0.5,4,0,8
1,1.00529229990207,138,0,1,1,0.5,4,0,8
1,0.652070899959654,139,1,1,1,0.5,4,0,8
1,6.03336980007589,140,1,1,1,0.5,4,0,8
1,6.45971810002811,141,1,1,1,0.5,4,0,8
0,3.83795220009051,142,0,1,1,0.5,4,0,8
0,0.703269599936903,143,0,1,1,0.5,4,0,8
0,0.678628099849448,144,0,1,1,0.5,4,0,8
1,0.656304399948567,145,1,1,1,0.5,4,0,8
1,0.642036699922755,146,1,1,1,0.5,4,0,8
1,2.61490889987908,147,1,1,1,0.5,4,0,8
0,1.22202500002459,148,0,1,1,0.5,4,0,8
1,0.824619099963456,149,1,1,1,0.5,4,0,8
1,1.00753280008212,150,1,1,1,0.5,4,0,8
1,3.70153660001233,151,1,1,1,0.5,4,0,8
1,2.50563749996945,152,1,1,1,0.5,4,0,8
1,1.31391030014493,153,0,1,1,0.5,4,0,8
1,1.2205317998305,154,1,1,1,0.5,4,0,8
0,1.1943964001257,155,0,1,1,0.5,4,0,8
0,0.82740189996548,156,0,1,1,0.5,4,0,8
1,0.742714499821886,157,1,1,1,0.5,4,0,8
1,2.41051049996167,158,1,1,1,0.5,4,0,8
0,2.08625310007483,159,0,1,1,0.5,4,0,8
0,1.08361810003407,160,0,1,1,0.5,4,0,8
0,1.24196130014025,1,1,1,0,0.5,2,0,9
0,1.4162957998924,2,1,1,0,0.5,2,0,9
0,0.952323999954388,3,1,1,0,0.5,2,0,9
0,1.04845110001042,4,1,1,0,0.5,2,0,9
0,1.02526340004988,5,1,1,0,0.5,2,0,9
0,1.04945249995217,6,1,1,0,0.5,2,0,9
0,0.888806800125167,7,1,1,0,0.5,2,0,9
0,1.03090579994023,8,1,1,0,0.5,2,0,9
0,1.13494829996489,9,1,1,0,0.5,2,0,9
0,0.791698399931192,10,1,1,0,0.5,2,0,9
0,0.765192799968645,11,1,1,0,0.5,2,0,9
0,0.999457299942151,12,1,1,0,0.5,2,0,9
0,0.786520000081509,13,1,1,0,0.5,2,0,9
0,0.848926800070331,14,1,1,0,0.5,2,0,9
0,0.795145800104365,15,1,1,0,0.5,2,0,9
0,0.867537300102413,16,1,1,0,0.5,2,0,9
